File: src/data/kinetics/singlepeaks/q-10.txt
#EXPORTTYPE:DATA SINGLE
#FORMAT:NETZSCH5
#FTYPE:ANSI
#IDENTITY:001924
#DECIMAL:POINT
#SEPARATOR:SEMICOLON
#DATE/TIME:13.12.2016 15:32
#CORR. FILE:001923_bline_Al_250_16_N2_20.ngb-bd3
#TEMPCAL:TCALZERO.TMX
#SENSITIVITY:SENSZERO.EXX
#SAMPLE MASS /mg:8.19
#MATERIAL:íåò
#REFERENCE:
#REFERENCE MASS /mg:0
#TYPE OF CRUCIBLE:Pan Al, closed
#SAMPLE CRUCIBLE MASS /mg:0
#REFERENCE CRUCIBLE MASS /mg:0
#M.RANGE /µV:5000
#TAU-R:---
#CORR. CODE:020
#EXO:+1
#RANGE:-10°C/10,0(K/min)/270°C
#SEGMENT:S2/2
#SEG. 2:-10°C/10,0(K/min)/270°C

##Temp./°C;Time/min;DSC/(uV/mg);Sensit./(uV/mW)
 66.71876;11.04500;    -1.01422;1.00000
 66.88928;11.06200;    -1.01330;1.00000
 67.05995;11.07900;    -1.01208;1.00000
 67.23052;11.09600;    -1.01235;1.00000
 67.40104;11.11300;    -1.01210;1.00000
 67.57207;11.13000;    -1.01190;1.00000
 67.74357;11.14700;    -1.01129;1.00000
 67.91548;11.16400;    -1.01253;1.00000
 68.08787;11.18100;    -1.01340;1.00000
 68.26045;11.19800;    -1.01563;1.00000
 68.43283;11.21500;    -1.01932;1.00000
 68.60519;11.23200;    -1.02137;1.00000
 68.77759;11.24900;    -1.02328;1.00000
 68.94997;11.26600;    -1.02493;1.00000
 69.12234;11.28300;    -1.02605;1.00000
 69.29486;11.30000;    -1.02662;1.00000
 69.46731;11.31700;    -1.02672;1.00000
 69.63944;11.33400;    -1.02406;1.00000
 69.81130;11.35100;    -1.02406;1.00000
 69.98280;11.36800;    -1.02447;1.00000
 70.15393;11.38500;    -1.02431;1.00000
 70.32517;11.40200;    -1.02424;1.00000
 70.49656;11.41900;    -1.02333;1.00000
 70.66809;11.43600;    -1.02180;1.00000
 70.83979;11.45300;    -1.02128;1.00000
 71.01123;11.47000;    -1.02245;1.00000
 71.18199;11.48700;    -1.02207;1.00000
 71.35202;11.50400;    -1.02172;1.00000
 71.52132;11.52100;    -1.01757;1.00000
 71.69034;11.53800;    -1.01544;1.00000
 71.85898;11.55500;    -1.01540;1.00000
 72.02762;11.57200;    -1.01404;1.00000
 72.19623;11.58900;    -1.01534;1.00000
 72.36473;11.60600;    -1.01341;1.00000
 72.53295;11.62300;    -1.01097;1.00000
 72.70117;11.64000;    -1.00730;1.00000
 72.86938;11.65700;    -1.00623;1.00000
 73.03792;11.67400;    -1.00632;1.00000
 73.20695;11.69100;    -1.00657;1.00000
 73.37661;11.70800;    -1.00708;1.00000
 73.54702;11.72500;    -1.00825;1.00000
 73.71758;11.74200;    -1.00877;1.00000
 73.88841;11.75900;    -1.01154;1.00000
 74.05923;11.77600;    -1.01418;1.00000
 74.22979;11.79300;    -1.01534;1.00000
 74.40015;11.81000;    -1.01608;1.00000
 74.57056;11.82700;    -1.01710;1.00000
 74.74089;11.84400;    -1.01693;1.00000
 74.91109;11.86100;    -1.01363;1.00000
 75.08095;11.87800;    -1.01166;1.00000
 75.25045;11.89500;    -1.01152;1.00000
 75.41997;11.91200;    -1.01275;1.00000
 75.58949;11.92900;    -1.01421;1.00000
 75.75937;11.94600;    -1.01671;1.00000
 75.92960;11.96300;    -1.01611;1.00000
 76.10036;11.98000;    -1.01427;1.00000
 76.27144;11.99700;    -1.01283;1.00000
 76.44255;12.01400;    -1.01235;1.00000
 76.61374;12.03100;    -1.01386;1.00000
 76.78454;12.04800;    -1.01447;1.00000
 76.95482;12.06500;    -1.01695;1.00000
 77.12500;12.08200;    -1.01992;1.00000
 77.29515;12.09900;    -1.02125;1.00000
 77.46518;12.11600;    -1.02341;1.00000
 77.63523;12.13300;    -1.02251;1.00000
 77.80499;12.15000;    -1.02080;1.00000
 77.97440;12.16700;    -1.01760;1.00000
 78.14360;12.18400;    -1.01424;1.00000
 78.31260;12.20100;    -1.01499;1.00000
 78.48150;12.21800;    -1.01517;1.00000
 78.65050;12.23500;    -1.01529;1.00000
 78.81952;12.25200;    -1.01432;1.00000
 78.98900;12.26900;    -1.01224;1.00000
 79.15829;12.28600;    -1.01454;1.00000
 79.32758;12.30300;    -1.01735;1.00000
 79.49679;12.32000;    -1.01696;1.00000
 79.66598;12.33700;    -1.01636;1.00000
 79.83536;12.35400;    -1.01459;1.00000
 80.00483;12.37100;    -1.01529;1.00000
 80.17423;12.38800;    -1.01161;1.00000
 80.34364;12.40500;    -1.00977;1.00000
 80.51303;12.42200;    -1.01020;1.00000
 80.68212;12.43900;    -1.01015;1.00000
 80.85139;12.45600;    -1.01309;1.00000
 81.02079;12.47300;    -1.01620;1.00000
 81.19043;12.49000;    -1.01838;1.00000
 81.36052;12.50700;    -1.01905;1.00000
 81.53097;12.52400;    -1.01909;1.00000
 81.70164;12.54100;    -1.01726;1.00000
 81.87270;12.55800;    -1.01852;1.00000
 82.04393;12.57500;    -1.02073;1.00000
 82.21524;12.59200;    -1.02205;1.00000
 82.38666;12.60900;    -1.02231;1.00000
 82.55834;12.62600;    -1.02488;1.00000
 82.73003;12.64300;    -1.02832;1.00000
 82.90179;12.66000;    -1.02976;1.00000
 83.07362;12.67700;    -1.03165;1.00000
 83.24523;12.69400;    -1.03242;1.00000
 83.41667;12.71100;    -1.03191;1.00000
 83.58813;12.72800;    -1.03237;1.00000
 83.75947;12.74500;    -1.03292;1.00000
 83.93050;12.76200;    -1.03169;1.00000
 84.10128;12.77900;    -1.02995;1.00000
 84.27177;12.79600;    -1.02759;1.00000
 84.44209;12.81300;    -1.02889;1.00000
 84.61253;12.83000;    -1.03031;1.00000
 84.78331;12.84700;    -1.03082;1.00000
 84.95428;12.86400;    -1.03327;1.00000
 85.12557;12.88100;    -1.03368;1.00000
 85.29685;12.89800;    -1.03311;1.00000
 85.46804;12.91500;    -1.03250;1.00000
 85.63920;12.93200;    -1.03425;1.00000
 85.81005;12.94900;    -1.03731;1.00000
 85.98048;12.96600;    -1.04063;1.00000
 86.15078;12.98300;    -1.04136;1.00000
 86.32121;13.00000;    -1.04058;1.00000
 86.49183;13.01700;    -1.03919;1.00000
 86.66288;13.03400;    -1.03731;1.00000
 86.83407;13.05100;    -1.03605;1.00000
 87.00498;13.06800;    -1.03350;1.00000
 87.17573;13.08500;    -1.03368;1.00000
 87.34681;13.10200;    -1.03408;1.00000
 87.51786;13.11900;    -1.03910;1.00000
 87.68899;13.13600;    -1.04515;1.00000
 87.86038;13.15300;    -1.04682;1.00000
 88.03209;13.17000;    -1.04718;1.00000
 88.20376;13.18700;    -1.04631;1.00000
 88.37542;13.20400;    -1.04558;1.00000
 88.54661;13.22100;    -1.04549;1.00000
 88.71705;13.23800;    -1.04503;1.00000
 88.88704;13.25500;    -1.04610;1.00000
 89.05691;13.27200;    -1.04637;1.00000
 89.22654;13.28900;    -1.04606;1.00000
 89.39606;13.30600;    -1.04495;1.00000
 89.56556;13.32300;    -1.04092;1.00000
 89.73514;13.34000;    -1.04090;1.00000
 89.90459;13.35700;    -1.04096;1.00000
 90.07403;13.37400;    -1.04453;1.00000
 90.24326;13.39100;    -1.04357;1.00000
 90.41265;13.40800;    -1.04500;1.00000
 90.58235;13.42500;    -1.04806;1.00000
 90.75217;13.44200;    -1.04744;1.00000
 90.92209;13.45900;    -1.04738;1.00000
 91.09203;13.47600;    -1.04604;1.00000
 91.26188;13.49300;    -1.04406;1.00000
 91.43169;13.51000;    -1.04395;1.00000
 91.60171;13.52700;    -1.04397;1.00000
 91.77177;13.54400;    -1.04481;1.00000
 91.94229;13.56100;    -1.04750;1.00000
 92.11292;13.57800;    -1.04819;1.00000
 92.28364;13.59500;    -1.04803;1.00000
 92.45455;13.61200;    -1.04975;1.00000
 92.62562;13.62900;    -1.05145;1.00000
 92.79688;13.64600;    -1.05341;1.00000
 92.96820;13.66300;    -1.05561;1.00000
 93.13975;13.68000;    -1.05730;1.00000
 93.31133;13.69700;    -1.06038;1.00000
 93.48280;13.71400;    -1.06104;1.00000
 93.65410;13.73100;    -1.06206;1.00000
 93.82536;13.74800;    -1.06183;1.00000
 93.99614;13.76500;    -1.06459;1.00000
 94.16669;13.78200;    -1.06635;1.00000
 94.33729;13.79900;    -1.06417;1.00000
 94.50772;13.81600;    -1.05739;1.00000
 94.67802;13.83300;    -1.05505;1.00000
 94.84836;13.85000;    -1.05466;1.00000
 95.01842;13.86700;    -1.05645;1.00000
 95.18831;13.88400;    -1.05633;1.00000
 95.35801;13.90100;    -1.05737;1.00000
 95.52757;13.91800;    -1.05886;1.00000
 95.69732;13.93500;    -1.05845;1.00000
 95.86704;13.95200;    -1.05753;1.00000
 96.03669;13.96900;    -1.05446;1.00000
 96.20648;13.98600;    -1.05328;1.00000
 96.37639;14.00300;    -1.05253;1.00000
 96.54646;14.02000;    -1.05244;1.00000
 96.71652;14.03700;    -1.05337;1.00000
 96.88667;14.05400;    -1.05427;1.00000
 97.05710;14.07100;    -1.05439;1.00000
 97.22770;14.08800;    -1.05296;1.00000
 97.39881;14.10500;    -1.05484;1.00000
 97.57036;14.12200;    -1.05893;1.00000
 97.74196;14.13900;    -1.06496;1.00000
 97.91367;14.15600;    -1.06710;1.00000
 98.08536;14.17300;    -1.06796;1.00000
 98.25681;14.19000;    -1.07034;1.00000
 98.42796;14.20700;    -1.07232;1.00000
 98.59904;14.22400;    -1.07172;1.00000
 98.76965;14.24100;    -1.07109;1.00000
 98.94001;14.25800;    -1.06976;1.00000
 99.11012;14.27500;    -1.06471;1.00000
 99.27992;14.29200;    -1.06052;1.00000
 99.44953;14.30900;    -1.05670;1.00000
 99.61909;14.32600;    -1.05601;1.00000
 99.78861;14.34300;    -1.05853;1.00000
 99.95815;14.36000;    -1.05791;1.00000
100.128;14.37700;    -1.05735;1.00000
100.298;14.39400;    -1.05703;1.00000
100.468;14.41100;    -1.05886;1.00000
100.638;14.42800;    -1.06179;1.00000
100.809;14.44500;    -1.06412;1.00000
100.98;14.46200;    -1.06227;1.00000
101.151;14.47900;    -1.06108;1.00000
101.322;14.49600;    -1.06159;1.00000
101.493;14.51300;    -1.06633;1.00000
101.664;14.53000;    -1.06934;1.00000
101.834;14.54700;    -1.07249;1.00000
102.004;14.56400;    -1.07342;1.00000
102.175;14.58100;    -1.07075;1.00000
102.345;14.59800;    -1.06415;1.00000
102.516;14.61500;    -1.05778;1.00000
102.686;14.63200;    -1.05685;1.00000
102.856;14.64900;    -1.05833;1.00000
103.026;14.66600;    -1.05930;1.00000
103.196;14.68300;    -1.06016;1.00000
103.366;14.70000;    -1.06276;1.00000
103.536;14.71700;    -1.06644;1.00000
103.706;14.73400;    -1.06975;1.00000
103.876;14.75100;    -1.07148;1.00000
104.046;14.76800;    -1.06808;1.00000
104.215;14.78500;    -1.06282;1.00000
104.384;14.80200;    -1.05854;1.00000
104.553;14.81900;    -1.05812;1.00000
104.721;14.83600;    -1.05761;1.00000
104.889;14.85300;    -1.05678;1.00000
105.057;14.87000;    -1.05604;1.00000
105.226;14.88700;    -1.05431;1.00000
105.395;14.90400;    -1.05141;1.00000
105.565;14.92100;    -1.04500;1.00000
105.734;14.93800;    -1.03983;1.00000
105.904;14.95500;    -1.04380;1.00000
106.074;14.97200;    -1.05113;1.00000
106.243;14.98900;    -1.05608;1.00000
106.414;15.00600;    -1.05984;1.00000
106.584;15.02300;    -1.06309;1.00000
106.754;15.04000;    -1.06620;1.00000
106.925;15.05700;    -1.06698;1.00000
107.096;15.07400;    -1.06342;1.00000
107.266;15.09100;    -1.05890;1.00000
107.437;15.10800;    -1.05636;1.00000
107.607;15.12500;    -1.05716;1.00000
107.777;15.14200;    -1.05547;1.00000
107.947;15.15900;    -1.05491;1.00000
108.117;15.17600;    -1.05588;1.00000
108.286;15.19300;    -1.05702;1.00000
108.456;15.21000;    -1.05923;1.00000
108.627;15.22700;    -1.06626;1.00000
108.797;15.24400;    -1.08045;1.00000
108.966;15.26100;    -1.08638;1.00000
109.136;15.27800;    -1.07690;1.00000
109.306;15.29500;    -1.06463;1.00000
109.475;15.31200;    -1.05586;1.00000
109.645;15.32900;    -1.05123;1.00000
109.815;15.34600;    -1.04945;1.00000
109.985;15.36300;    -1.04804;1.00000
110.156;15.38000;    -1.04737;1.00000
110.326;15.39700;    -1.04919;1.00000
110.497;15.41400;    -1.05180;1.00000
110.667;15.43100;    -1.05734;1.00000
110.837;15.44800;    -1.06123;1.00000
111.008;15.46500;    -1.06322;1.00000
111.178;15.48200;    -1.06382;1.00000
111.349;15.49900;    -1.06348;1.00000
111.52;15.51600;    -1.06277;1.00000
111.691;15.53300;    -1.05947;1.00000
111.863;15.55000;    -1.05780;1.00000
112.033;15.56700;    -1.05731;1.00000
112.204;15.58400;    -1.05761;1.00000
112.374;15.60100;    -1.05987;1.00000
112.544;15.61800;    -1.06397;1.00000
112.715;15.63500;    -1.06717;1.00000
112.885;15.65200;    -1.06788;1.00000
113.056;15.66900;    -1.06513;1.00000
113.226;15.68600;    -1.05977;1.00000
113.397;15.70300;    -1.05511;1.00000
113.566;15.72000;    -1.05463;1.00000
113.736;15.73700;    -1.05681;1.00000
113.904;15.75400;    -1.05918;1.00000
114.073;15.77100;    -1.05974;1.00000
114.242;15.78800;    -1.05870;1.00000
114.412;15.80500;    -1.05842;1.00000
114.582;15.82200;    -1.05514;1.00000
114.752;15.83900;    -1.05149;1.00000
114.923;15.85600;    -1.05058;1.00000
115.093;15.87300;    -1.05170;1.00000
115.264;15.89000;    -1.05762;1.00000
115.435;15.90700;    -1.06090;1.00000
115.606;15.92400;    -1.06333;1.00000
115.777;15.94100;    -1.06475;1.00000
115.949;15.95800;    -1.06709;1.00000
116.121;15.97500;    -1.06859;1.00000
116.293;15.99200;    -1.06921;1.00000
116.464;16.00900;    -1.07125;1.00000
116.635;16.02600;    -1.07268;1.00000
116.805;16.04300;    -1.07305;1.00000
116.975;16.06000;    -1.07011;1.00000
117.145;16.07700;    -1.06714;1.00000
117.314;16.09400;    -1.06477;1.00000
117.483;16.11100;    -1.06246;1.00000
117.652;16.12800;    -1.05968;1.00000
117.822;16.14500;    -1.05661;1.00000
117.99;16.16200;    -1.05601;1.00000
118.159;16.17900;    -1.05457;1.00000
118.328;16.19600;    -1.05487;1.00000
118.497;16.21300;    -1.05611;1.00000
118.666;16.23000;    -1.05968;1.00000
118.835;16.24700;    -1.06169;1.00000
119.005;16.26400;    -1.06044;1.00000
119.174;16.28100;    -1.05999;1.00000
119.344;16.29800;    -1.05994;1.00000
119.514;16.31500;    -1.05781;1.00000
119.684;16.33200;    -1.05752;1.00000
119.853;16.34900;    -1.05881;1.00000
120.023;16.36600;    -1.06158;1.00000
120.193;16.38300;    -1.06416;1.00000
120.364;16.40000;    -1.06657;1.00000
120.535;16.41700;    -1.06533;1.00000
120.707;16.43400;    -1.06341;1.00000
120.878;16.45100;    -1.06210;1.00000
121.049;16.46800;    -1.06651;1.00000
121.22;16.48500;    -1.07302;1.00000
121.391;16.50200;    -1.07857;1.00000
121.562;16.51900;    -1.07989;1.00000
121.733;16.53600;    -1.07908;1.00000
121.904;16.55300;    -1.07415;1.00000
122.074;16.57000;    -1.06794;1.00000
122.244;16.58700;    -1.06750;1.00000
122.414;16.60400;    -1.06898;1.00000
122.583;16.62100;    -1.07071;1.00000
122.751;16.63800;    -1.06965;1.00000
122.919;16.65500;    -1.06694;1.00000
123.088;16.67200;    -1.06274;1.00000
123.256;16.68900;    -1.05969;1.00000
123.424;16.70600;    -1.05568;1.00000
123.593;16.72300;    -1.05563;1.00000
123.761;16.74000;    -1.05473;1.00000
123.929;16.75700;    -1.05564;1.00000
124.098;16.77400;    -1.05798;1.00000
124.267;16.79100;    -1.05888;1.00000
124.437;16.80800;    -1.06038;1.00000
124.606;16.82500;    -1.06114;1.00000
124.776;16.84200;    -1.06257;1.00000
124.946;16.85900;    -1.06496;1.00000
125.116;16.87600;    -1.06855;1.00000
125.287;16.89300;    -1.06939;1.00000
125.457;16.91000;    -1.07061;1.00000
125.627;16.92700;    -1.07036;1.00000
125.798;16.94400;    -1.07359;1.00000
125.968;16.96100;    -1.07574;1.00000
126.138;16.97800;    -1.07729;1.00000
126.309;16.99500;    -1.07705;1.00000
126.479;17.01200;    -1.07688;1.00000
126.649;17.02900;    -1.07704;1.00000
126.82;17.04600;    -1.07628;1.00000
126.99;17.06300;    -1.07629;1.00000
127.16;17.08000;    -1.07712;1.00000
127.33;17.09700;    -1.07886;1.00000
127.5;17.11400;    -1.07935;1.00000
127.67;17.13100;    -1.07767;1.00000
127.841;17.14800;    -1.06684;1.00000
128.011;17.16500;    -1.06171;1.00000
128.181;17.18200;    -1.06156;1.00000
128.352;17.19900;    -1.06672;1.00000
128.522;17.21600;    -1.07110;1.00000
128.693;17.23300;    -1.07342;1.00000
128.863;17.25000;    -1.07704;1.00000
129.034;17.26700;    -1.08332;1.00000
129.205;17.28400;    -1.08711;1.00000
129.376;17.30100;    -1.08730;1.00000
129.547;17.31800;    -1.08519;1.00000
129.718;17.33500;    -1.08278;1.00000
129.889;17.35200;    -1.08336;1.00000
130.06;17.36900;    -1.08272;1.00000
130.232;17.38600;    -1.08256;1.00000
130.402;17.40300;    -1.07988;1.00000
130.573;17.42000;    -1.08094;1.00000
130.743;17.43700;    -1.08298;1.00000
130.913;17.45400;    -1.08449;1.00000
131.083;17.47100;    -1.08318;1.00000
131.253;17.48800;    -1.08189;1.00000
131.422;17.50500;    -1.07715;1.00000
131.592;17.52200;    -1.07213;1.00000
131.762;17.53900;    -1.06715;1.00000
131.931;17.55600;    -1.06470;1.00000
132.1;17.57300;    -1.06599;1.00000
132.269;17.59000;    -1.06762;1.00000
132.438;17.60700;    -1.07075;1.00000
132.607;17.62400;    -1.07448;1.00000
132.776;17.64100;    -1.07700;1.00000
132.946;17.65800;    -1.08092;1.00000
133.117;17.67500;    -1.08172;1.00000
133.288;17.69200;    -1.08130;1.00000
133.458;17.70900;    -1.08016;1.00000
133.629;17.72600;    -1.08012;1.00000
133.799;17.74300;    -1.08169;1.00000
133.97;17.76000;    -1.08239;1.00000
134.141;17.77700;    -1.08396;1.00000
134.311;17.79400;    -1.08330;1.00000
134.482;17.81100;    -1.07900;1.00000
134.653;17.82800;    -1.07786;1.00000
134.823;17.84500;    -1.07787;1.00000
134.993;17.86200;    -1.07842;1.00000
135.163;17.87900;    -1.07960;1.00000
135.333;17.89600;    -1.07955;1.00000
135.502;17.91300;    -1.07852;1.00000
135.672;17.93000;    -1.07699;1.00000
135.842;17.94700;    -1.07628;1.00000
136.012;17.96400;    -1.07506;1.00000
136.182;17.98100;    -1.07349;1.00000
136.352;17.99800;    -1.07162;1.00000
136.523;18.01500;    -1.07123;1.00000
136.693;18.03200;    -1.07458;1.00000
136.863;18.04900;    -1.07891;1.00000
137.033;18.06600;    -1.08183;1.00000
137.203;18.08300;    -1.08380;1.00000
137.374;18.10000;    -1.08484;1.00000
137.544;18.11700;    -1.08326;1.00000
137.714;18.13400;    -1.08094;1.00000
137.884;18.15100;    -1.07870;1.00000
138.054;18.16800;    -1.07939;1.00000
138.224;18.18500;    -1.07868;1.00000
138.394;18.20200;    -1.07753;1.00000
138.563;18.21900;    -1.07509;1.00000
138.733;18.23600;    -1.07321;1.00000
138.903;18.25300;    -1.07241;1.00000
139.073;18.27000;    -1.07328;1.00000
139.243;18.28700;    -1.07478;1.00000
139.412;18.30400;    -1.07544;1.00000
139.583;18.32100;    -1.07840;1.00000
139.753;18.33800;    -1.07944;1.00000
139.923;18.35500;    -1.07707;1.00000
140.094;18.37200;    -1.07512;1.00000
140.265;18.38900;    -1.07572;1.00000
140.436;18.40600;    -1.07580;1.00000
140.607;18.42300;    -1.07968;1.00000
140.777;18.44000;    -1.08343;1.00000
140.949;18.45700;    -1.08406;1.00000
141.12;18.47400;    -1.08486;1.00000
141.291;18.49100;    -1.08476;1.00000
141.462;18.50800;    -1.08366;1.00000
141.633;18.52500;    -1.08270;1.00000
141.804;18.54200;    -1.08173;1.00000
141.974;18.55900;    -1.08036;1.00000
142.145;18.57600;    -1.07867;1.00000
142.315;18.59300;    -1.07820;1.00000
142.485;18.61000;    -1.07852;1.00000
142.656;18.62700;    -1.07730;1.00000
142.826;18.64400;    -1.07661;1.00000
142.997;18.66100;    -1.07388;1.00000
143.167;18.67800;    -1.07345;1.00000
143.337;18.69500;    -1.07367;1.00000
143.508;18.71200;    -1.07551;1.00000
143.678;18.72900;    -1.07831;1.00000
143.848;18.74600;    -1.07861;1.00000
144.018;18.76300;    -1.07691;1.00000
144.188;18.78000;    -1.07499;1.00000
144.358;18.79700;    -1.07480;1.00000
144.528;18.81400;    -1.07263;1.00000
144.698;18.83100;    -1.06890;1.00000
144.867;18.84800;    -1.06615;1.00000
145.036;18.86500;    -1.06656;1.00000
145.206;18.88200;    -1.06717;1.00000
145.375;18.89900;    -1.06833;1.00000
145.544;18.91600;    -1.06736;1.00000
145.713;18.93300;    -1.06482;1.00000
145.882;18.95000;    -1.06395;1.00000
146.052;18.96700;    -1.06333;1.00000
146.221;18.98400;    -1.06357;1.00000
146.39;19.00100;    -1.06305;1.00000
146.56;19.01800;    -1.06255;1.00000
146.729;19.03500;    -1.06257;1.00000
146.899;19.05200;    -1.06194;1.00000
147.069;19.06900;    -1.06103;1.00000
147.238;19.08600;    -1.06111;1.00000
147.408;19.10300;    -1.06170;1.00000
147.578;19.12000;    -1.06374;1.00000
147.748;19.13700;    -1.06680;1.00000
147.917;19.15400;    -1.06676;1.00000
148.087;19.17100;    -1.06582;1.00000
148.257;19.18800;    -1.06363;1.00000
148.427;19.20500;    -1.06279;1.00000
148.596;19.22200;    -1.06097;1.00000
148.766;19.23900;    -1.05953;1.00000
148.935;19.25600;    -1.05788;1.00000
149.105;19.27300;    -1.05752;1.00000
149.275;19.29000;    -1.05727;1.00000
149.444;19.30700;    -1.05715;1.00000
149.614;19.32400;    -1.05662;1.00000
149.785;19.34100;    -1.05715;1.00000
149.955;19.35800;    -1.05771;1.00000
150.125;19.37500;    -1.05787;1.00000
150.296;19.39200;    -1.05766;1.00000
150.467;19.40900;    -1.05914;1.00000
150.637;19.42600;    -1.06074;1.00000
150.808;19.44300;    -1.06082;1.00000
150.979;19.46000;    -1.06094;1.00000
151.151;19.47700;    -1.06096;1.00000
151.322;19.49400;    -1.05949;1.00000
151.493;19.51100;    -1.05894;1.00000
151.664;19.52800;    -1.05983;1.00000
151.835;19.54500;    -1.06001;1.00000
152.005;19.56200;    -1.06324;1.00000
152.176;19.57900;    -1.05991;1.00000
152.347;19.59600;    -1.05541;1.00000
152.517;19.61300;    -1.04906;1.00000
152.687;19.63000;    -1.04762;1.00000
152.858;19.64700;    -1.04816;1.00000
153.028;19.66400;    -1.04999;1.00000
153.198;19.68100;    -1.05098;1.00000
153.368;19.69800;    -1.04921;1.00000
153.538;19.71500;    -1.04576;1.00000
153.709;19.73200;    -1.04068;1.00000
153.88;19.74900;    -1.03940;1.00000
154.05;19.76600;    -1.04035;1.00000
154.221;19.78300;    -1.04151;1.00000
154.392;19.80000;    -1.04347;1.00000
154.562;19.81700;    -1.04377;1.00000
154.733;19.83400;    -1.04280;1.00000
154.904;19.85100;    -1.04168;1.00000
155.074;19.86800;    -1.03843;1.00000
155.244;19.88500;    -1.03792;1.00000
155.414;19.90200;    -1.03697;1.00000
155.584;19.91900;    -1.03392;1.00000
155.753;19.93600;    -1.03084;1.00000
155.923;19.95300;    -1.02766;1.00000
156.093;19.97000;    -1.02513;1.00000
156.263;19.98700;    -1.02290;1.00000
156.433;20.00400;    -1.02278;1.00000
156.604;20.02100;    -1.02261;1.00000
156.773;20.03800;    -1.02252;1.00000
156.943;20.05500;    -1.02243;1.00000
157.113;20.07200;    -1.02362;1.00000
157.284;20.08900;    -1.02392;1.00000
157.454;20.10600;    -1.02375;1.00000
157.625;20.12300;    -1.01878;1.00000
157.795;20.14000;    -1.01281;1.00000
157.966;20.15700;    -1.01019;1.00000
158.136;20.17400;    -1.01047;1.00000
158.307;20.19100;    -1.01206;1.00000
158.477;20.20800;    -1.01280;1.00000
158.647;20.22500;    -1.01138;1.00000
158.817;20.24200;    -1.00940;1.00000
158.987;20.25900;    -1.00731;1.00000
159.157;20.27600;    -1.00464;1.00000
159.328;20.29300;    -1.00113;1.00000
159.498;20.31000;    -0.99845;1.00000
159.669;20.32700;    -0.99602;1.00000
159.839;20.34400;    -0.99442;1.00000
160.01;20.36100;    -0.99371;1.00000
160.18;20.37800;    -0.99144;1.00000
160.351;20.39500;    -0.99063;1.00000
160.521;20.41200;    -0.99157;1.00000
160.691;20.42900;    -0.99187;1.00000
160.862;20.44600;    -0.98868;1.00000
161.032;20.46300;    -0.98667;1.00000
161.202;20.48000;    -0.98186;1.00000
161.372;20.49700;    -0.98031;1.00000
161.542;20.51400;    -0.97696;1.00000
161.712;20.53100;    -0.97244;1.00000
161.881;20.54800;    -0.96718;1.00000
162.051;20.56500;    -0.96417;1.00000
162.22;20.58200;    -0.96098;1.00000
162.389;20.59900;    -0.95976;1.00000
162.558;20.61600;    -0.95550;1.00000
162.728;20.63300;    -0.95241;1.00000
162.897;20.65000;    -0.94862;1.00000
163.067;20.66700;    -0.94548;1.00000
163.236;20.68400;    -0.94231;1.00000
163.406;20.70100;    -0.93857;1.00000
163.576;20.71800;    -0.93811;1.00000
163.746;20.73500;    -0.93569;1.00000
163.917;20.75200;    -0.93395;1.00000
164.087;20.76900;    -0.93240;1.00000
164.257;20.78600;    -0.93084;1.00000
164.428;20.80300;    -0.92831;1.00000
164.599;20.82000;    -0.92457;1.00000
164.769;20.83700;    -0.92172;1.00000
164.939;20.85400;    -0.91878;1.00000
165.109;20.87100;    -0.91448;1.00000
165.279;20.88800;    -0.91103;1.00000
165.449;20.90500;    -0.90666;1.00000
165.618;20.92200;    -0.90040;1.00000
165.788;20.93900;    -0.89413;1.00000
165.957;20.95600;    -0.88802;1.00000
166.127;20.97300;    -0.88284;1.00000
166.296;20.99000;    -0.87773;1.00000
166.465;21.00700;    -0.87307;1.00000
166.635;21.02400;    -0.86951;1.00000
166.804;21.04100;    -0.86600;1.00000
166.974;21.05800;    -0.86096;1.00000
167.143;21.07500;    -0.85582;1.00000
167.313;21.09200;    -0.85137;1.00000
167.482;21.10900;    -0.84826;1.00000
167.652;21.12600;    -0.84434;1.00000
167.822;21.14300;    -0.83879;1.00000
167.992;21.16000;    -0.83218;1.00000
168.162;21.17700;    -0.82672;1.00000
168.332;21.19400;    -0.82158;1.00000
168.502;21.21100;    -0.81578;1.00000
168.672;21.22800;    -0.81168;1.00000
168.842;21.24500;    -0.80714;1.00000
169.013;21.26200;    -0.80163;1.00000
169.183;21.27900;    -0.79464;1.00000
169.354;21.29600;    -0.78935;1.00000
169.524;21.31300;    -0.78141;1.00000
169.695;21.33000;    -0.77474;1.00000
169.866;21.34700;    -0.76926;1.00000
170.037;21.36400;    -0.76318;1.00000
170.209;21.38100;    -0.75590;1.00000
170.38;21.39800;    -0.74830;1.00000
170.551;21.41500;    -0.74291;1.00000
170.722;21.43200;    -0.73842;1.00000
170.893;21.44900;    -0.73325;1.00000
171.064;21.46600;    -0.72640;1.00000
171.235;21.48300;    -0.71643;1.00000
171.407;21.50000;    -0.70423;1.00000
171.578;21.51700;    -0.69194;1.00000
171.749;21.53400;    -0.68075;1.00000
171.92;21.55100;    -0.67354;1.00000
172.09;21.56800;    -0.66476;1.00000
172.261;21.58500;    -0.65533;1.00000
172.431;21.60200;    -0.64617;1.00000
172.601;21.61900;    -0.63471;1.00000
172.772;21.63600;    -0.62428;1.00000
172.943;21.65300;    -0.61214;1.00000
173.113;21.67000;    -0.60178;1.00000
173.284;21.68700;    -0.58957;1.00000
173.454;21.70400;    -0.57689;1.00000
173.625;21.72100;    -0.56403;1.00000
173.795;21.73800;    -0.55217;1.00000
173.965;21.75500;    -0.54034;1.00000
174.136;21.77200;    -0.52749;1.00000
174.306;21.78900;    -0.51562;1.00000
174.476;21.80600;    -0.50050;1.00000
174.647;21.82300;    -0.48745;1.00000
174.817;21.84000;    -0.47273;1.00000
174.986;21.85700;    -0.45809;1.00000
175.156;21.87400;    -0.44304;1.00000
175.325;21.89100;    -0.42628;1.00000
175.495;21.90800;    -0.40686;1.00000
175.664;21.92500;    -0.39081;1.00000
175.833;21.94200;    -0.37297;1.00000
176.002;21.95900;    -0.35543;1.00000
176.172;21.97600;    -0.33706;1.00000
176.341;21.99300;    -0.31906;1.00000
176.51;22.01000;    -0.30134;1.00000
176.679;22.02700;    -0.28247;1.00000
176.849;22.04400;    -0.26383;1.00000
177.019;22.06100;    -0.24629;1.00000
177.188;22.07800;    -0.22635;1.00000
177.358;22.09500;    -0.20628;1.00000
177.528;22.11200;    -0.18487;1.00000
177.698;22.12900;    -0.16363;1.00000
177.868;22.14600;    -0.14190;1.00000
178.038;22.16300;    -0.11859;1.00000
178.208;22.18000;-9.4798e-002;1.00000
178.378;22.19700;-6.9796e-002;1.00000
178.549;22.21400;-4.4850e-002;1.00000
178.719;22.23100;-1.9492e-002;1.00000
178.889;22.24800; 4.7936e-003;1.00000
179.059;22.26500; 2.9219e-002;1.00000
179.23;22.28200; 5.4935e-002;1.00000
179.4;22.29900; 8.2028e-002;1.00000
179.569;22.31600;     0.11154;1.00000
179.739;22.33300;     0.14148;1.00000
179.91;22.35000;     0.17159;1.00000
180.079;22.36700;     0.20292;1.00000
180.249;22.38400;     0.23874;1.00000
180.419;22.40100;     0.27388;1.00000
180.589;22.41800;     0.30779;1.00000
180.758;22.43500;     0.34041;1.00000
180.928;22.45200;     0.37369;1.00000
181.097;22.46900;     0.40778;1.00000
181.267;22.48600;     0.44425;1.00000
181.437;22.50300;     0.48342;1.00000
181.607;22.52000;     0.52276;1.00000
181.778;22.53700;     0.56258;1.00000
181.948;22.55400;     0.60428;1.00000
182.118;22.57100;     0.64515;1.00000
182.288;22.58800;     0.68499;1.00000
182.458;22.60500;     0.72510;1.00000
182.628;22.62200;     0.76933;1.00000
182.798;22.63900;     0.81465;1.00000
182.968;22.65600;     0.86301;1.00000
183.138;22.67300;     0.91220;1.00000
183.308;22.69000;     0.96230;1.00000
183.478;22.70700;     1.01365;1.00000
183.647;22.72400;     1.06827;1.00000
183.817;22.74100;     1.12120;1.00000
183.986;22.75800;     1.17611;1.00000
184.156;22.77500;     1.23154;1.00000
184.325;22.79200;     1.28988;1.00000
184.495;22.80900;     1.34820;1.00000
184.665;22.82600;     1.40828;1.00000
184.834;22.84300;     1.46733;1.00000
185.004;22.86000;     1.52921;1.00000
185.174;22.87700;     1.59219;1.00000
185.344;22.89400;     1.65641;1.00000
185.514;22.91100;     1.72184;1.00000
185.684;22.92800;     1.78956;1.00000
185.854;22.94500;     1.85818;1.00000
186.024;22.96200;     1.93053;1.00000
186.195;22.97900;     2.00202;1.00000
186.365;22.99600;     2.07668;1.00000
186.535;23.01300;     2.15194;1.00000
186.705;23.03000;     2.22957;1.00000
186.876;23.04700;     2.30799;1.00000
187.046;23.06400;     2.38780;1.00000
187.216;23.08100;     2.47069;1.00000
187.386;23.09800;     2.55407;1.00000
187.556;23.11500;     2.63838;1.00000
187.726;23.13200;     2.72655;1.00000
187.896;23.14900;     2.81460;1.00000
188.066;23.16600;     2.90448;1.00000
188.236;23.18300;     2.99753;1.00000
188.406;23.20000;     3.09157;1.00000
188.576;23.21700;     3.18744;1.00000
188.745;23.23400;     3.28470;1.00000
188.915;23.25100;     3.38312;1.00000
189.085;23.26800;     3.48271;1.00000
189.255;23.28500;     3.58902;1.00000
189.425;23.30200;     3.69528;1.00000
189.595;23.31900;     3.80642;1.00000
189.766;23.33600;     3.92138;1.00000
189.936;23.35300;     4.04061;1.00000
190.106;23.37000;     4.16547;1.00000
190.276;23.38700;     4.29620;1.00000
190.446;23.40400;     4.42776;1.00000
190.616;23.42100;     4.56239;1.00000
190.786;23.43800;     4.69941;1.00000
190.956;23.45500;     4.83886;1.00000
191.125;23.47200;     4.98358;1.00000
191.295;23.48900;     5.12843;1.00000
191.465;23.50600;     5.27328;1.00000
191.635;23.52300;     5.41754;1.00000
191.805;23.54000;     5.55745;1.00000
191.975;23.55700;     5.69579;1.00000
192.145;23.57400;     5.82830;1.00000
192.315;23.59100;     5.95835;1.00000
192.484;23.60800;     6.08202;1.00000
192.654;23.62500;     6.20019;1.00000
192.824;23.64200;     6.30963;1.00000
192.994;23.65900;     6.41252;1.00000
193.164;23.67600;     6.50465;1.00000
193.334;23.69300;     6.58826;1.00000
193.505;23.71000;     6.66012;1.00000
193.675;23.72700;     6.72357;1.00000
193.845;23.74400;     6.77570;1.00000
194.015;23.76100;     6.81725;1.00000
194.185;23.77800;     6.84721;1.00000
194.355;23.79500;     6.86512;1.00000
194.525;23.81200;     6.87262;1.00000
194.695;23.82900;     6.87170;1.00000
194.865;23.84600;     6.86080;1.00000
195.036;23.86300;     6.83981;1.00000
195.206;23.88000;     6.80862;1.00000
195.376;23.89700;     6.76780;1.00000
195.546;23.91400;     6.71937;1.00000
195.716;23.93100;     6.66209;1.00000
195.886;23.94800;     6.59890;1.00000
196.056;23.96500;     6.53054;1.00000
196.226;23.98200;     6.45570;1.00000
196.396;23.99900;     6.37866;1.00000
196.566;24.01600;     6.29656;1.00000
196.736;24.03300;     6.21104;1.00000
196.906;24.05000;     6.12123;1.00000
197.075;24.06700;     6.02875;1.00000
197.244;24.08400;     5.93418;1.00000
197.413;24.10100;     5.83898;1.00000
197.583;24.11800;     5.74216;1.00000
197.752;24.13500;     5.64419;1.00000
197.921;24.15200;     5.54702;1.00000
198.09;24.16900;     5.45161;1.00000
198.26;24.18600;     5.35463;1.00000
198.429;24.20300;     5.25564;1.00000
198.598;24.22000;     5.15656;1.00000
198.768;24.23700;     5.05788;1.00000
198.938;24.25400;     4.95983;1.00000
199.107;24.27100;     4.86448;1.00000
199.277;24.28800;     4.77218;1.00000
199.448;24.30500;     4.68121;1.00000
199.618;24.32200;     4.59051;1.00000
199.788;24.33900;     4.50111;1.00000
199.958;24.35600;     4.41237;1.00000
200.128;24.37300;     4.32738;1.00000
200.297;24.39000;     4.24406;1.00000
200.467;24.40700;     4.16234;1.00000
200.637;24.42400;     4.08093;1.00000
200.806;24.44100;     4.00199;1.00000
200.976;24.45800;     3.92541;1.00000
201.145;24.47500;     3.84789;1.00000
201.315;24.49200;     3.77285;1.00000
201.484;24.50900;     3.69822;1.00000
201.654;24.52600;     3.62816;1.00000
201.823;24.54300;     3.55805;1.00000
201.993;24.56000;     3.48677;1.00000
202.162;24.57700;     3.41844;1.00000
202.332;24.59400;     3.35029;1.00000
202.501;24.61100;     3.28252;1.00000
202.671;24.62800;     3.21676;1.00000
202.84;24.64500;     3.15440;1.00000
203.01;24.66200;     3.09287;1.00000
203.18;24.67900;     3.03112;1.00000
203.35;24.69600;     2.97284;1.00000
203.52;24.71300;     2.91503;1.00000
203.69;24.73000;     2.85767;1.00000
203.86;24.74700;     2.80070;1.00000
204.03;24.76400;     2.74413;1.00000
204.199;24.78100;     2.68802;1.00000
204.369;24.79800;     2.63298;1.00000
204.539;24.81500;     2.58000;1.00000
204.709;24.83200;     2.52894;1.00000
204.879;24.84900;     2.48011;1.00000
205.049;24.86600;     2.43156;1.00000
205.219;24.88300;     2.38213;1.00000
205.389;24.90000;     2.33338;1.00000
205.559;24.91700;     2.28723;1.00000
205.729;24.93400;     2.24234;1.00000
205.899;24.95100;     2.19676;1.00000
206.068;24.96800;     2.15361;1.00000
206.238;24.98500;     2.10786;1.00000
206.408;25.00200;     2.06319;1.00000
206.577;25.01900;     2.02304;1.00000
206.747;25.03600;     1.98145;1.00000
206.917;25.05300;     1.93960;1.00000
207.086;25.07000;     1.89902;1.00000
207.256;25.08700;     1.85866;1.00000
207.426;25.10400;     1.81906;1.00000
207.596;25.12100;     1.77905;1.00000
207.766;25.13800;     1.73976;1.00000
207.936;25.15500;     1.69944;1.00000
208.106;25.17200;     1.66059;1.00000
208.276;25.18900;     1.62187;1.00000
208.446;25.20600;     1.57982;1.00000
208.616;25.22300;     1.53898;1.00000
208.786;25.24000;     1.49560;1.00000
208.956;25.25700;     1.45826;1.00000
209.126;25.27400;     1.41993;1.00000
209.296;25.29100;     1.38044;1.00000
209.466;25.30800;     1.33991;1.00000
209.635;25.32500;     1.29684;1.00000
209.804;25.34200;     1.25378;1.00000
209.974;25.35900;     1.21108;1.00000
210.143;25.37600;     1.17230;1.00000
210.313;25.39300;     1.13948;1.00000
210.482;25.41000;     1.11902;1.00000
210.652;25.42700;     1.10755;1.00000
210.822;25.44400;     1.10084;1.00000
210.992;25.46100;     1.09485;1.00000
211.161;25.47800;     1.08308;1.00000
211.331;25.49500;     1.06720;1.00000
211.501;25.51200;     1.04949;1.00000
211.671;25.52900;     1.03156;1.00000
211.841;25.54600;     1.01157;1.00000
212.011;25.56300;     0.99058;1.00000
212.181;25.58000;     0.96926;1.00000
212.351;25.59700;     0.94864;1.00000
212.521;25.61400;     0.92639;1.00000
212.69;25.63100;     0.90467;1.00000
212.86;25.64800;     0.88242;1.00000
213.03;25.66500;     0.85815;1.00000
213.2;25.68200;     0.83200;1.00000
213.37;25.69900;     0.80894;1.00000
213.539;25.71600;     0.78660;1.00000
213.709;25.73300;     0.76628;1.00000
213.879;25.75000;     0.74458;1.00000
214.049;25.76700;     0.72339;1.00000
214.219;25.78400;     0.70337;1.00000
214.389;25.80100;     0.68299;1.00000
214.558;25.81800;     0.66167;1.00000
214.728;25.83500;     0.64036;1.00000
214.898;25.85200;     0.61964;1.00000
215.068;25.86900;     0.59931;1.00000
215.238;25.88600;     0.57793;1.00000
215.408;25.90300;     0.55792;1.00000
215.578;25.92000;     0.53761;1.00000
215.748;25.93700;     0.51882;1.00000
215.918;25.95400;     0.49949;1.00000
216.088;25.97100;     0.48099;1.00000
216.257;25.98800;     0.46281;1.00000
216.427;26.00500;     0.44551;1.00000
216.597;26.02200;     0.42778;1.00000
216.766;26.03900;     0.40932;1.00000
216.936;26.05600;     0.39216;1.00000
217.106;26.07300;     0.37481;1.00000
217.276;26.09000;     0.35771;1.00000
217.445;26.10700;     0.33936;1.00000
217.615;26.12400;     0.32127;1.00000
217.785;26.14100;     0.30318;1.00000
217.955;26.15800;     0.28490;1.00000
218.126;26.17500;     0.26749;1.00000
218.296;26.19200;     0.25386;1.00000
218.466;26.20900;     0.23891;1.00000
218.636;26.22600;     0.22271;1.00000
218.807;26.24300;     0.20635;1.00000
218.977;26.26000;     0.19051;1.00000
219.147;26.27700;     0.17436;1.00000
219.317;26.29400;     0.16013;1.00000
219.487;26.31100;     0.14572;1.00000
219.658;26.32800;     0.13131;1.00000
219.828;26.34500;     0.11492;1.00000
219.998;26.36200;     0.10078;1.00000
220.169;26.37900; 8.6462e-002;1.00000
220.339;26.39600; 7.1981e-002;1.00000
220.509;26.41300; 5.7807e-002;1.00000
220.68;26.43000; 4.1885e-002;1.00000
220.85;26.44700; 3.0011e-002;1.00000
221.02;26.46400; 1.6737e-002;1.00000
221.191;26.48100; 2.7186e-003;1.00000
221.361;26.49800;-9.1971e-003;1.00000
221.531;26.51500;-2.2224e-002;1.00000
221.701;26.53200;-3.5618e-002;1.00000
221.871;26.54900;-4.6316e-002;1.00000
222.041;26.56600;-5.9749e-002;1.00000
222.212;26.58300;-7.1276e-002;1.00000
222.382;26.60000;-8.2765e-002;1.00000
222.551;26.61700;-9.4559e-002;1.00000
222.721;26.63400;    -0.10562;1.00000
222.891;26.65100;    -0.11723;1.00000
223.061;26.66800;    -0.12834;1.00000
223.23;26.68500;    -0.14062;1.00000
223.4;26.70200;    -0.15118;1.00000
223.569;26.71900;    -0.16246;1.00000
223.739;26.73600;    -0.17338;1.00000
223.908;26.75300;    -0.18373;1.00000
224.078;26.77000;    -0.19379;1.00000
224.248;26.78700;    -0.20442;1.00000
224.417;26.80400;    -0.21417;1.00000
224.587;26.82100;    -0.22405;1.00000
224.756;26.83800;    -0.23702;1.00000
224.926;26.85500;    -0.24709;1.00000
225.096;26.87200;    -0.25651;1.00000
225.265;26.88900;    -0.26530;1.00000
225.435;26.90600;    -0.27572;1.00000
225.605;26.92300;    -0.28517;1.00000
225.775;26.94000;    -0.29546;1.00000
225.945;26.95700;    -0.30564;1.00000
226.115;26.97400;    -0.31503;1.00000
226.285;26.99100;    -0.32569;1.00000
226.455;27.00800;    -0.33358;1.00000
226.625;27.02500;    -0.34343;1.00000
226.795;27.04200;    -0.35162;1.00000
226.964;27.05900;    -0.36087;1.00000
227.135;27.07600;    -0.36835;1.00000
227.304;27.09300;    -0.37411;1.00000
227.474;27.11000;    -0.38178;1.00000
227.644;27.12700;    -0.38971;1.00000
227.814;27.14400;    -0.39879;1.00000
227.985;27.16100;    -0.40785;1.00000
228.155;27.17800;    -0.41731;1.00000
228.325;27.19500;    -0.42565;1.00000
228.495;27.21200;    -0.43528;1.00000
228.666;27.22900;    -0.44116;1.00000
228.836;27.24600;    -0.44886;1.00000
229.006;27.26300;    -0.45667;1.00000
229.177;27.28000;    -0.46396;1.00000
229.347;27.29700;    -0.47037;1.00000
229.517;27.31400;    -0.47647;1.00000
229.687;27.33100;    -0.48235;1.00000
229.857;27.34800;    -0.48783;1.00000
230.027;27.36500;    -0.49346;1.00000
230.197;27.38200;    -0.49936;1.00000
230.367;27.39900;    -0.50585;1.00000
230.537;27.41600;    -0.51193;1.00000
230.707;27.43300;    -0.51874;1.00000
230.877;27.45000;    -0.52504;1.00000
231.047;27.46700;    -0.53106;1.00000
231.217;27.48400;    -0.53668;1.00000
231.387;27.50100;    -0.54089;1.00000
231.557;27.51800;    -0.54696;1.00000
231.727;27.53500;    -0.55133;1.00000
231.897;27.55200;    -0.55562;1.00000
232.067;27.56900;    -0.55913;1.00000
232.236;27.58600;    -0.56652;1.00000
232.406;27.60300;    -0.57215;1.00000
232.576;27.62000;    -0.57788;1.00000
232.746;27.63700;    -0.58317;1.00000
232.917;27.65400;    -0.58651;1.00000
233.087;27.67100;    -0.59237;1.00000
233.257;27.68800;    -0.59697;1.00000
233.427;27.70500;    -0.60160;1.00000
233.597;27.72200;    -0.60632;1.00000
233.767;27.73900;    -0.60964;1.00000
233.937;27.75600;    -0.61242;1.00000
234.107;27.77300;    -0.61597;1.00000
234.277;27.79000;    -0.61988;1.00000
234.446;27.80700;    -0.62120;1.00000
234.617;27.82400;    -0.62620;1.00000
234.787;27.84100;    -0.62947;1.00000
234.957;27.85800;    -0.63280;1.00000
235.127;27.87500;    -0.63644;1.00000
235.297;27.89200;    -0.64163;1.00000
235.467;27.90900;    -0.64367;1.00000
235.637;27.92600;    -0.65049;1.00000
235.807;27.94300;    -0.65419;1.00000
235.977;27.96000;    -0.65634;1.00000
236.147;27.97700;    -0.65888;1.00000
236.317;27.99400;    -0.66127;1.00000
236.487;28.01100;    -0.66270;1.00000
236.657;28.02800;    -0.66345;1.00000
236.827;28.04500;    -0.66561;1.00000
236.997;28.06200;    -0.66793;1.00000
237.167;28.07900;    -0.67159;1.00000
237.336;28.09600;    -0.67451;1.00000
237.506;28.11300;    -0.67773;1.00000
237.676;28.13000;    -0.68156;1.00000
237.846;28.14700;    -0.68325;1.00000
238.016;28.16400;    -0.68382;1.00000
238.186;28.18100;    -0.68414;1.00000
238.356;28.19800;    -0.68540;1.00000
238.526;28.21500;    -0.68740;1.00000
238.696;28.23200;    -0.68929;1.00000
238.866;28.24900;    -0.69150;1.00000
239.036;28.26600;    -0.69363;1.00000
239.206;28.28300;    -0.69683;1.00000
239.376;28.30000;    -0.69937;1.00000
239.546;28.31700;    -0.70212;1.00000
239.717;28.33400;    -0.70435;1.00000
239.887;28.35100;    -0.70522;1.00000
240.057;28.36800;    -0.70564;1.00000
240.227;28.38500;    -0.70525;1.00000
240.397;28.40200;    -0.70567;1.00000
240.567;28.41900;    -0.70881;1.00000
240.737;28.43600;    -0.71014;1.00000
240.907;28.45300;    -0.71097;1.00000
241.078;28.47000;    -0.71077;1.00000
241.248;28.48700;    -0.71105;1.00000
241.418;28.50400;    -0.71186;1.00000
241.588;28.52100;    -0.71237;1.00000
241.758;28.53800;    -0.71434;1.00000
241.929;28.55500;    -0.71657;1.00000
242.099;28.57200;    -0.71855;1.00000
242.269;28.58900;    -0.72028;1.00000
242.44;28.60600;    -0.72064;1.00000
242.61;28.62300;    -0.72203;1.00000
242.78;28.64000;    -0.72264;1.00000
242.951;28.65700;    -0.72269;1.00000
243.121;28.67400;    -0.72298;1.00000
243.291;28.69100;    -0.72200;1.00000
243.462;28.70800;    -0.72057;1.00000
243.632;28.72500;    -0.72152;1.00000
243.802;28.74200;    -0.72159;1.00000
243.972;28.75900;    -0.72253;1.00000
244.141;28.77600;    -0.72317;1.00000
244.311;28.79300;    -0.72303;1.00000
244.481;28.81000;    -0.72314;1.00000
244.651;28.82700;    -0.72231;1.00000
244.821;28.84400;    -0.72161;1.00000
244.991;28.86100;    -0.72194;1.00000
245.162;28.87800;    -0.72150;1.00000
245.332;28.89500;    -0.72189;1.00000
245.502;28.91200;    -0.72329;1.00000
245.672;28.92900;    -0.72459;1.00000
245.842;28.94600;    -0.72454;1.00000
246.013;28.96300;    -0.72521;1.00000
246.183;28.98000;    -0.72529;1.00000
246.353;28.99700;    -0.72510;1.00000
246.524;29.01400;    -0.72581;1.00000
246.694;29.03100;    -0.72664;1.00000
246.864;29.04800;    -0.72773;1.00000
247.034;29.06500;    -0.72643;1.00000
247.204;29.08200;    -0.72523;1.00000
247.374;29.09900;    -0.72636;1.00000
247.544;29.11600;    -0.72544;1.00000
247.714;29.13300;    -0.72354;1.00000
247.884;29.15000;    -0.72179;1.00000
248.054;29.16700;    -0.72024;1.00000
248.224;29.18400;    -0.71887;1.00000
248.394;29.20100;    -0.71825;1.00000
248.563;29.21800;    -0.72006;1.00000
248.733;29.23500;    -0.72120;1.00000
248.903;29.25200;    -0.72153;1.00000
249.073;29.26900;    -0.72028;1.00000
249.243;29.28600;    -0.71977;1.00000
249.413;29.30300;    -0.71907;1.00000
249.583;29.32000;    -0.71960;1.00000
249.753;29.33700;    -0.71966;1.00000
249.923;29.35400;    -0.71906;1.00000
250.093;29.37100;    -0.71633;1.00000
250.263;29.38800;    -0.71574;1.00000
250.433;29.40500;    -0.71583;1.00000
250.603;29.42200;    -0.71754;1.00000
250.774;29.43900;    -0.71902;1.00000
250.944;29.45600;    -0.71892;1.00000
251.115;29.47300;    -0.71853;1.00000
251.286;29.49000;    -0.71779;1.00000
251.457;29.50700;    -0.71574;1.00000