File: src/data/kinetics/singlepeaks/q-2.txt
#EXPORTTYPE:DATA SINGLE
#FORMAT:NETZSCH5
#FTYPE:ANSI
#IDENTITY:001931
#DECIMAL:POINT
#SEPARATOR:SEMICOLON
#DATE/TIME:16.12.2016 11:34
#CORR. FILE:001930_bline_Al_250_2_N2_70.ngb-bd3
#TEMPCAL:TCALZERO.TMX
#SENSITIVITY:SENSZERO.EXX
#SAMPLE MASS /mg:8.25
#MATERIAL:ïðåïðåã
#REFERENCE:
#REFERENCE MASS /mg:0
#TYPE OF CRUCIBLE:Pan Al, closed
#SAMPLE CRUCIBLE MASS /mg:0
#REFERENCE CRUCIBLE MASS /mg:0
#M.RANGE /µV:5000
#TAU-R:---
#CORR. CODE:020
#EXO:+1
#RANGE:24°C/2,0(K/min)/270°C
#SEGMENT:S1/2
#SEG. 1:24°C/2,0(K/min)/270°C

##Temp./°C;Time/min;DSC/(uV/mg);Sensit./(uV/mW)
 48.47032; 12.50000;    -0.19300;1.00000
 48.65077; 12.59000;    -0.19346;1.00000
 48.83116; 12.68000;    -0.19429;1.00000
 49.01148; 12.77000;    -0.19328;1.00000
 49.19182; 12.86000;    -0.19319;1.00000
 49.37217; 12.95000;    -0.19374;1.00000
 49.55263; 13.04000;    -0.19374;1.00000
 49.73304; 13.13000;    -0.19300;1.00000
 49.91339; 13.22000;    -0.19300;1.00000
 50.09371; 13.31000;    -0.19300;1.00000
 50.27408; 13.40000;    -0.19374;1.00000
 50.45446; 13.49000;    -0.19383;1.00000
 50.63471; 13.58000;    -0.19291;1.00000
 50.81511; 13.67000;    -0.19392;1.00000
 50.99547; 13.76000;    -0.19281;1.00000
 51.17587; 13.85000;    -0.19337;1.00000
 51.35623; 13.94000;    -0.19235;1.00000
 51.53665; 14.03000;    -0.19328;1.00000
 51.71702; 14.12000;    -0.19355;1.00000
 51.89734; 14.21000;    -0.19291;1.00000
 52.07761; 14.30000;    -0.19309;1.00000
 52.25793; 14.39000;    -0.19198;1.00000
 52.43820; 14.48000;    -0.19374;1.00000
 52.61851; 14.57000;    -0.19198;1.00000
 52.79885; 14.66000;    -0.19263;1.00000
 52.97911; 14.75000;    -0.19346;1.00000
 53.15942; 14.84000;    -0.19281;1.00000
 53.33969; 14.93000;    -0.19226;1.00000
 53.51987; 15.02000;    -0.19318;1.00000
 53.70009; 15.11000;    -0.19374;1.00000
 53.88029; 15.20000;    -0.19152;1.00000
 54.06054; 15.29000;    -0.19365;1.00000
 54.24073; 15.38000;    -0.19207;1.00000
 54.42088; 15.47000;    -0.19309;1.00000
 54.60096; 15.56000;    -0.19281;1.00000
 54.78102; 15.65000;    -0.19244;1.00000
 54.96117; 15.74000;    -0.19263;1.00000
 55.14135; 15.83000;    -0.19291;1.00000
 55.32145; 15.92000;    -0.19216;1.00000
 55.50163; 16.01000;    -0.19226;1.00000
 55.68177; 16.10000;    -0.19309;1.00000
 55.86197; 16.19000;    -0.19309;1.00000
 56.04208; 16.28000;    -0.19272;1.00000
 56.22222; 16.37000;    -0.19198;1.00000
 56.40249; 16.46000;    -0.19235;1.00000
 56.58271; 16.55000;    -0.19216;1.00000
 56.76291; 16.64000;    -0.19300;1.00000
 56.94304; 16.73000;    -0.19318;1.00000
 57.12311; 16.82000;    -0.19327;1.00000
 57.30334; 16.91000;    -0.19300;1.00000
 57.48344; 17.00000;    -0.19226;1.00000
 57.66350; 17.09000;    -0.19309;1.00000
 57.84366; 17.18000;    -0.19327;1.00000
 58.02377; 17.27000;    -0.19235;1.00000
 58.20392; 17.36000;    -0.19365;1.00000
 58.38396; 17.45000;    -0.19198;1.00000
 58.56402; 17.54000;    -0.19170;1.00000
 58.74410; 17.63000;    -0.19143;1.00000
 58.92421; 17.72000;    -0.19189;1.00000
 59.10432; 17.81000;    -0.19281;1.00000
 59.28442; 17.90000;    -0.19300;1.00000
 59.46449; 17.99000;    -0.19235;1.00000
 59.64468; 18.08000;    -0.19318;1.00000
 59.82480; 18.17000;    -0.19272;1.00000
 60.00495; 18.26000;    -0.19198;1.00000
 60.18505; 18.35000;    -0.19300;1.00000
 60.36516; 18.44000;    -0.19198;1.00000
 60.54526; 18.53000;    -0.19254;1.00000
 60.72533; 18.62000;    -0.19198;1.00000
 60.90544; 18.71000;    -0.19263;1.00000
 61.08551; 18.80000;    -0.19170;1.00000
 61.26552; 18.89000;    -0.19189;1.00000
 61.44554; 18.98000;    -0.19216;1.00000
 61.62549; 19.07000;    -0.19272;1.00000
 61.80544; 19.16000;    -0.19207;1.00000
 61.98539; 19.25000;    -0.19263;1.00000
 62.16542; 19.34000;    -0.19189;1.00000
 62.34548; 19.43000;    -0.19161;1.00000
 62.52546; 19.52000;    -0.19272;1.00000
 62.70553; 19.61000;    -0.19290;1.00000
 62.88566; 19.70000;    -0.19198;1.00000
 63.06576; 19.79000;    -0.19226;1.00000
 63.24590; 19.88000;    -0.19263;1.00000
 63.42600; 19.97000;    -0.19244;1.00000
 63.60614; 20.06000;    -0.19235;1.00000
 63.78622; 20.15000;    -0.19318;1.00000
 63.96632; 20.24000;    -0.19383;1.00000
 64.14631; 20.33000;    -0.19355;1.00000
 64.32637; 20.42000;    -0.19179;1.00000
 64.50640; 20.51000;    -0.19328;1.00000
 64.68638; 20.60000;    -0.19355;1.00000
 64.86636; 20.69000;    -0.19272;1.00000
 65.04634; 20.78000;    -0.19383;1.00000
 65.22637; 20.87000;    -0.19374;1.00000
 65.40640; 20.96000;    -0.19328;1.00000
 65.58638; 21.05000;    -0.19309;1.00000
 65.76642; 21.14000;    -0.19438;1.00000
 65.94644; 21.23000;    -0.19291;1.00000
 66.12659; 21.32000;    -0.19383;1.00000
 66.30654; 21.41000;    -0.19411;1.00000
 66.48655; 21.50000;    -0.19337;1.00000
 66.66659; 21.59000;    -0.19420;1.00000
 66.84656; 21.68000;    -0.19392;1.00000
 67.02658; 21.77000;    -0.19365;1.00000
 67.20655; 21.86000;    -0.19401;1.00000
 67.38653; 21.95000;    -0.19337;1.00000
 67.56660; 22.04000;    -0.19392;1.00000
 67.74665; 22.13000;    -0.19300;1.00000
 67.92666; 22.22000;    -0.19327;1.00000
 68.10666; 22.31000;    -0.19290;1.00000
 68.28673; 22.40000;    -0.19309;1.00000
 68.46668; 22.49000;    -0.19263;1.00000
 68.64677; 22.58000;    -0.19364;1.00000
 68.82683; 22.67000;    -0.19364;1.00000
 69.00692; 22.76000;    -0.19337;1.00000
 69.18703; 22.85000;    -0.19290;1.00000
 69.36706; 22.94000;    -0.19309;1.00000
 69.54710; 23.03000;    -0.19439;1.00000
 69.72713; 23.12000;    -0.19318;1.00000
 69.90723; 23.21000;    -0.19383;1.00000
 70.08723; 23.30000;    -0.19439;1.00000
 70.26725; 23.39000;    -0.19309;1.00000
 70.44736; 23.48000;    -0.19475;1.00000
 70.62737; 23.57000;    -0.19420;1.00000
 70.80739; 23.66000;    -0.19420;1.00000
 70.98737; 23.75000;    -0.19374;1.00000
 71.16732; 23.84000;    -0.19503;1.00000
 71.34733; 23.93000;    -0.19420;1.00000
 71.52737; 24.02000;    -0.19318;1.00000
 71.70741; 24.11000;    -0.19420;1.00000
 71.88737; 24.20000;    -0.19466;1.00000
 72.06740; 24.29000;    -0.19457;1.00000
 72.24748; 24.38000;    -0.19429;1.00000
 72.42740; 24.47000;    -0.19401;1.00000
 72.60748; 24.56000;    -0.19531;1.00000
 72.78748; 24.65000;    -0.19383;1.00000
 72.96755; 24.74000;    -0.19466;1.00000
 73.14758; 24.83000;    -0.19438;1.00000
 73.32764; 24.92000;    -0.19512;1.00000
 73.50767; 25.01000;    -0.19494;1.00000
 73.68762; 25.10000;    -0.19438;1.00000
 73.86770; 25.19000;    -0.19512;1.00000
 74.04772; 25.28000;    -0.19522;1.00000
 74.22773; 25.37000;    -0.19522;1.00000
 74.40781; 25.46000;    -0.19540;1.00000
 74.58779; 25.55000;    -0.19522;1.00000
 74.76782; 25.64000;    -0.19503;1.00000
 74.94790; 25.73000;    -0.19494;1.00000
 75.12792; 25.82000;    -0.19485;1.00000
 75.30790; 25.91000;    -0.19439;1.00000
 75.48792; 26.00000;    -0.19531;1.00000
 75.66794; 26.09000;    -0.19522;1.00000
 75.84793; 26.18000;    -0.19494;1.00000
 76.02794; 26.27000;    -0.19522;1.00000
 76.20801; 26.36000;    -0.19494;1.00000
 76.38803; 26.45000;    -0.19457;1.00000
 76.56804; 26.54000;    -0.19512;1.00000
 76.74809; 26.63000;    -0.19596;1.00000
 76.92805; 26.72000;    -0.19605;1.00000
 77.10801; 26.81000;    -0.19466;1.00000
 77.28794; 26.90000;    -0.19484;1.00000
 77.46800; 26.99000;    -0.19559;1.00000
 77.64796; 27.08000;    -0.19540;1.00000
 77.82797; 27.17000;    -0.19586;1.00000
 78.00795; 27.26000;    -0.19577;1.00000
 78.18787; 27.35000;    -0.19568;1.00000
 78.36778; 27.44000;    -0.19577;1.00000
 78.54769; 27.53000;    -0.19439;1.00000
 78.72758; 27.62000;    -0.19549;1.00000
 78.90759; 27.71000;    -0.19559;1.00000
 79.08755; 27.80000;    -0.19521;1.00000
 79.26755; 27.89000;    -0.19531;1.00000
 79.44752; 27.98000;    -0.19494;1.00000
 79.62748; 28.07000;    -0.19531;1.00000
 79.80748; 28.16000;    -0.19577;1.00000
 79.98749; 28.25000;    -0.19549;1.00000
 80.16760; 28.34000;    -0.19586;1.00000
 80.34766; 28.43000;    -0.19559;1.00000
 80.52770; 28.52000;    -0.19558;1.00000
 80.70780; 28.61000;    -0.19559;1.00000
 80.88784; 28.70000;    -0.19614;1.00000
 81.06790; 28.79000;    -0.19642;1.00000
 81.24800; 28.88000;    -0.19596;1.00000
 81.42811; 28.97000;    -0.19494;1.00000
 81.60816; 29.06000;    -0.19586;1.00000
 81.78815; 29.15000;    -0.19623;1.00000
 81.96823; 29.24000;    -0.19596;1.00000
 82.14827; 29.33000;    -0.19660;1.00000
 82.32838; 29.42000;    -0.19605;1.00000
 82.50844; 29.51000;    -0.19475;1.00000
 82.68846; 29.60000;    -0.19484;1.00000
 82.86855; 29.69000;    -0.19614;1.00000
 83.04862; 29.78000;    -0.19577;1.00000
 83.22866; 29.87000;    -0.19614;1.00000
 83.40867; 29.96000;    -0.19623;1.00000
 83.58872; 30.05000;    -0.19614;1.00000
 83.76885; 30.14000;    -0.19586;1.00000
 83.94887; 30.23000;    -0.19614;1.00000
 84.12891; 30.32000;    -0.19614;1.00000
 84.30885; 30.41000;    -0.19568;1.00000
 84.48892; 30.50000;    -0.19697;1.00000
 84.66896; 30.59000;    -0.19475;1.00000
 84.84893; 30.68000;    -0.19559;1.00000
 85.02898; 30.77000;    -0.19633;1.00000
 85.20905; 30.86000;    -0.19586;1.00000
 85.38909; 30.95000;    -0.19586;1.00000
 85.56908; 31.04000;    -0.19679;1.00000
 85.74902; 31.13000;    -0.19642;1.00000
 85.92903; 31.22000;    -0.19660;1.00000
 86.10896; 31.31000;    -0.19624;1.00000
 86.28899; 31.40000;    -0.19670;1.00000
 86.46896; 31.49000;    -0.19725;1.00000
 86.64898; 31.58000;    -0.19744;1.00000
 86.82903; 31.67000;    -0.19716;1.00000
 87.00902; 31.76000;    -0.19586;1.00000
 87.18901; 31.85000;    -0.19827;1.00000
 87.36899; 31.94000;    -0.19679;1.00000
 87.54902; 32.03000;    -0.19707;1.00000
 87.72905; 32.12000;    -0.19688;1.00000
 87.90912; 32.21000;    -0.19716;1.00000
 88.08917; 32.30000;    -0.19743;1.00000
 88.26919; 32.39000;    -0.19697;1.00000
 88.44925; 32.48000;    -0.19753;1.00000
 88.62928; 32.57000;    -0.19744;1.00000
 88.80924; 32.66000;    -0.19661;1.00000
 88.98927; 32.75000;    -0.19707;1.00000
 89.16928; 32.84000;    -0.19660;1.00000
 89.34932; 32.93000;    -0.19688;1.00000
 89.52933; 33.02000;    -0.19642;1.00000
 89.70938; 33.11000;    -0.19744;1.00000
 89.88938; 33.20000;    -0.19808;1.00000
 90.06946; 33.29000;    -0.19661;1.00000
 90.24946; 33.38000;    -0.19688;1.00000
 90.42944; 33.47000;    -0.19679;1.00000
 90.60950; 33.56000;    -0.19818;1.00000
 90.78951; 33.65000;    -0.19725;1.00000
 90.96957; 33.74000;    -0.19670;1.00000
 91.14969; 33.83000;    -0.19697;1.00000
 91.32974; 33.92000;    -0.19660;1.00000
 91.50976; 34.01000;    -0.19781;1.00000
 91.68982; 34.10000;    -0.19743;1.00000
 91.86983; 34.19000;    -0.19707;1.00000
 92.04984; 34.28000;    -0.19753;1.00000
 92.22980; 34.37000;    -0.19734;1.00000
 92.40983; 34.46000;    -0.19799;1.00000
 92.58983; 34.55000;    -0.19799;1.00000
 92.76988; 34.64000;    -0.19790;1.00000
 92.94987; 34.73000;    -0.19762;1.00000
 93.12984; 34.82000;    -0.19734;1.00000
 93.30982; 34.91000;    -0.19799;1.00000
 93.48976; 35.00000;    -0.19808;1.00000
 93.66980; 35.09000;    -0.19707;1.00000
 93.84979; 35.18000;    -0.19651;1.00000
 94.02973; 35.27000;    -0.19891;1.00000
 94.20985; 35.36000;    -0.19697;1.00000
 94.38984; 35.45000;    -0.19799;1.00000
 94.56989; 35.54000;    -0.19762;1.00000
 94.74985; 35.63000;    -0.19753;1.00000
 94.92987; 35.72000;    -0.19697;1.00000
 95.10989; 35.81000;    -0.19790;1.00000
 95.28990; 35.90000;    -0.19790;1.00000
 95.46989; 35.99000;    -0.19790;1.00000
 95.64979; 36.08000;    -0.19808;1.00000
 95.82983; 36.17000;    -0.19697;1.00000
 96.00984; 36.26000;    -0.19697;1.00000
 96.18980; 36.35000;    -0.19790;1.00000
 96.36987; 36.44000;    -0.19781;1.00000
 96.54989; 36.53000;    -0.19771;1.00000
 96.72988; 36.62000;    -0.19901;1.00000
 96.90996; 36.71000;    -0.19882;1.00000
 97.08996; 36.80000;    -0.19762;1.00000
 97.26998; 36.89000;    -0.19882;1.00000
 97.45003; 36.98000;    -0.19882;1.00000
 97.63008; 37.07000;    -0.19827;1.00000
 97.81014; 37.16000;    -0.19882;1.00000
 97.99009; 37.25000;    -0.19854;1.00000
 98.17017; 37.34000;    -0.19827;1.00000
 98.35016; 37.43000;    -0.19725;1.00000
 98.53022; 37.52000;    -0.19771;1.00000
 98.71026; 37.61000;    -0.19855;1.00000
 98.89028; 37.70000;    -0.19854;1.00000
 99.07037; 37.79000;    -0.19873;1.00000
 99.25042; 37.88000;    -0.19947;1.00000
 99.43055; 37.97000;    -0.19892;1.00000
 99.61063; 38.06000;    -0.19910;1.00000
 99.79066; 38.15000;    -0.19901;1.00000
 99.97079; 38.24000;    -0.19873;1.00000
100.151; 38.33000;    -0.19873;1.00000
100.331; 38.42000;    -0.19984;1.00000
100.511; 38.51000;    -0.19827;1.00000
100.691; 38.60000;    -0.19845;1.00000
100.871; 38.69000;    -0.19966;1.00000
101.051; 38.78000;    -0.20058;1.00000
101.231; 38.87000;    -0.19984;1.00000
101.411; 38.96000;    -0.19929;1.00000
101.591; 39.05000;    -0.19993;1.00000
101.771; 39.14000;    -0.19827;1.00000
101.951; 39.23000;    -0.19901;1.00000
102.131; 39.32000;    -0.19882;1.00000
102.311; 39.41000;    -0.19919;1.00000
102.491; 39.50000;    -0.19928;1.00000
102.67; 39.59000;    -0.19947;1.00000
102.85; 39.68000;    -0.19827;1.00000
103.03; 39.77000;    -0.19928;1.00000
103.21; 39.86000;    -0.20003;1.00000
103.39; 39.95000;    -0.19993;1.00000
103.57; 40.04000;    -0.20040;1.00000
103.75; 40.13000;    -0.19984;1.00000
103.93; 40.22000;    -0.19956;1.00000
104.11; 40.31000;    -0.19956;1.00000
104.29; 40.40000;    -0.19956;1.00000
104.47; 40.49000;    -0.19928;1.00000
104.65; 40.58000;    -0.19882;1.00000
104.83; 40.67000;    -0.19928;1.00000
105.01; 40.76000;    -0.19919;1.00000
105.19; 40.85000;    -0.19808;1.00000
105.37; 40.94000;    -0.19929;1.00000
105.55; 41.03000;    -0.19929;1.00000
105.73; 41.12000;    -0.19975;1.00000
105.911; 41.21000;    -0.19873;1.00000
106.091; 41.30000;    -0.19892;1.00000
106.271; 41.39000;    -0.19808;1.00000
106.451; 41.48000;    -0.19966;1.00000
106.631; 41.57000;    -0.19984;1.00000
106.811; 41.66000;    -0.19966;1.00000
106.991; 41.75000;    -0.19993;1.00000
107.171; 41.84000;    -0.19938;1.00000
107.351; 41.93000;    -0.20021;1.00000
107.531; 42.02000;    -0.19845;1.00000
107.711; 42.11000;    -0.19956;1.00000
107.891; 42.20000;    -0.19827;1.00000
108.071; 42.29000;    -0.19929;1.00000
108.251; 42.38000;    -0.19993;1.00000
108.431; 42.47000;    -0.20058;1.00000
108.611; 42.56000;    -0.19901;1.00000
108.791; 42.65000;    -0.19919;1.00000
108.971; 42.74000;    -0.20003;1.00000
109.151; 42.83000;    -0.20123;1.00000
109.331; 42.92000;    -0.20012;1.00000
109.511; 43.01000;    -0.19975;1.00000
109.691; 43.10000;    -0.19947;1.00000
109.871; 43.19000;    -0.19947;1.00000
110.051; 43.28000;    -0.20021;1.00000
110.231; 43.37000;    -0.19910;1.00000
110.411; 43.46000;    -0.20067;1.00000
110.591; 43.55000;    -0.19947;1.00000
110.771; 43.64000;    -0.19919;1.00000
110.951; 43.73000;    -0.19966;1.00000
111.131; 43.82000;    -0.19975;1.00000
111.311; 43.91000;    -0.19938;1.00000
111.491; 44.00000;    -0.19901;1.00000
111.671; 44.09000;    -0.19836;1.00000
111.851; 44.18000;    -0.19892;1.00000
112.031; 44.27000;    -0.19910;1.00000
112.211; 44.36000;    -0.19901;1.00000
112.391; 44.45000;    -0.19901;1.00000
112.571; 44.54000;    -0.19938;1.00000
112.751; 44.63000;    -0.19771;1.00000
112.931; 44.72000;    -0.19928;1.00000
113.111; 44.81000;    -0.19910;1.00000
113.291; 44.90000;    -0.19762;1.00000
113.471; 44.99000;    -0.19975;1.00000
113.651; 45.08000;    -0.19845;1.00000
113.831; 45.17000;    -0.19910;1.00000
114.011; 45.26000;    -0.19910;1.00000
114.191; 45.35000;    -0.19817;1.00000
114.371; 45.44000;    -0.19771;1.00000
114.551; 45.53000;    -0.19891;1.00000
114.731; 45.62000;    -0.19827;1.00000
114.911; 45.71000;    -0.19873;1.00000
115.091; 45.80000;    -0.19947;1.00000
115.271; 45.89000;    -0.19836;1.00000
115.451; 45.98000;    -0.19799;1.00000
115.631; 46.07000;    -0.19836;1.00000
115.811; 46.16000;    -0.19892;1.00000
115.991; 46.25000;    -0.19864;1.00000
116.171; 46.34000;    -0.19808;1.00000
116.351; 46.43000;    -0.19781;1.00000
116.531; 46.52000;    -0.19938;1.00000
116.711; 46.61000;    -0.19929;1.00000
116.891; 46.70000;    -0.19919;1.00000
117.071; 46.79000;    -0.19855;1.00000
117.251; 46.88000;    -0.19910;1.00000
117.431; 46.97000;    -0.19919;1.00000
117.611; 47.06000;    -0.19855;1.00000
117.791; 47.15000;    -0.19891;1.00000
117.971; 47.24000;    -0.19873;1.00000
118.151; 47.33000;    -0.19808;1.00000
118.331; 47.42000;    -0.19781;1.00000
118.511; 47.51000;    -0.19808;1.00000
118.691; 47.60000;    -0.19799;1.00000
118.871; 47.69000;    -0.19744;1.00000
119.051; 47.78000;    -0.19808;1.00000
119.231; 47.87000;    -0.19762;1.00000
119.411; 47.96000;    -0.19781;1.00000
119.591; 48.05000;    -0.19817;1.00000
119.771; 48.14000;    -0.19836;1.00000
119.951; 48.23000;    -0.19725;1.00000
120.131; 48.32000;    -0.19716;1.00000
120.311; 48.41000;    -0.19781;1.00000
120.491; 48.50000;    -0.19707;1.00000
120.671; 48.59000;    -0.19651;1.00000
120.851; 48.68000;    -0.19651;1.00000
121.031; 48.77000;    -0.19753;1.00000
121.211; 48.86000;    -0.19799;1.00000
121.391; 48.95000;    -0.19744;1.00000
121.571; 49.04000;    -0.19651;1.00000
121.751; 49.13000;    -0.19670;1.00000
121.931; 49.22000;    -0.19688;1.00000
122.111; 49.31000;    -0.19633;1.00000
122.291; 49.40000;    -0.19716;1.00000
122.471; 49.49000;    -0.19762;1.00000
122.651; 49.58000;    -0.19707;1.00000
122.831; 49.67000;    -0.19623;1.00000
123.011; 49.76000;    -0.19743;1.00000
123.191; 49.85000;    -0.19651;1.00000
123.371; 49.94000;    -0.19679;1.00000
123.551; 50.03000;    -0.19633;1.00000
123.731; 50.12000;    -0.19586;1.00000
123.911; 50.21000;    -0.19734;1.00000
124.091; 50.30000;    -0.19707;1.00000
124.271; 50.39000;    -0.19633;1.00000
124.451; 50.48000;    -0.19605;1.00000
124.631; 50.57000;    -0.19614;1.00000
124.811; 50.66000;    -0.19494;1.00000
124.991; 50.75000;    -0.19485;1.00000
125.171; 50.84000;    -0.19503;1.00000
125.351; 50.93000;    -0.19577;1.00000
125.531; 51.02000;    -0.19707;1.00000
125.711; 51.11000;    -0.19522;1.00000
125.891; 51.20000;    -0.19596;1.00000
126.071; 51.29000;    -0.19513;1.00000
126.251; 51.38000;    -0.19457;1.00000
126.431; 51.47000;    -0.19503;1.00000
126.611; 51.56000;    -0.19494;1.00000
126.791; 51.65000;    -0.19448;1.00000
126.971; 51.74000;    -0.19392;1.00000
127.151; 51.83000;    -0.19494;1.00000
127.331; 51.92000;    -0.19438;1.00000
127.511; 52.01000;    -0.19383;1.00000
127.691; 52.10000;    -0.19438;1.00000
127.871; 52.19000;    -0.19466;1.00000
128.051; 52.28000;    -0.19254;1.00000
128.231; 52.37000;    -0.19337;1.00000
128.411; 52.46000;    -0.19318;1.00000
128.591; 52.55000;    -0.19364;1.00000
128.771; 52.64000;    -0.19300;1.00000
128.951; 52.73000;    -0.19207;1.00000
129.131; 52.82000;    -0.19309;1.00000
129.311; 52.91000;    -0.19346;1.00000
129.491; 53.00000;    -0.19364;1.00000
129.671; 53.09000;    -0.19198;1.00000
129.851; 53.18000;    -0.19309;1.00000
130.031; 53.27000;    -0.19189;1.00000
130.211; 53.36000;    -0.19244;1.00000
130.391; 53.45000;    -0.19179;1.00000
130.571; 53.54000;    -0.19189;1.00000
130.751; 53.63000;    -0.19124;1.00000
130.931; 53.72000;    -0.19161;1.00000
131.111; 53.81000;    -0.18985;1.00000
131.291; 53.90000;    -0.19078;1.00000
131.471; 53.99000;    -0.18985;1.00000
131.651; 54.08000;    -0.19068;1.00000
131.831; 54.17000;    -0.18957;1.00000
132.011; 54.26000;    -0.18994;1.00000
132.191; 54.35000;    -0.18911;1.00000
132.371; 54.44000;    -0.18995;1.00000
132.551; 54.53000;    -0.18911;1.00000
132.731; 54.62000;    -0.18772;1.00000
132.911; 54.71000;    -0.18837;1.00000
133.091; 54.80000;    -0.18745;1.00000
133.271; 54.89000;    -0.18884;1.00000
133.451; 54.98000;    -0.18828;1.00000
133.632; 55.07000;    -0.18745;1.00000
133.812; 55.16000;    -0.18727;1.00000
133.992; 55.25000;    -0.18726;1.00000
134.172; 55.34000;    -0.18699;1.00000
134.351; 55.43000;    -0.18643;1.00000
134.531; 55.52000;    -0.18569;1.00000
134.711; 55.61000;    -0.18643;1.00000
134.891; 55.70000;    -0.18541;1.00000
135.071; 55.79000;    -0.18560;1.00000
135.251; 55.88000;    -0.18431;1.00000
135.431; 55.97000;    -0.18412;1.00000
135.611; 56.06000;    -0.18467;1.00000
135.791; 56.15000;    -0.18393;1.00000
135.971; 56.24000;    -0.18347;1.00000
136.151; 56.33000;    -0.18301;1.00000
136.331; 56.42000;    -0.18421;1.00000
136.511; 56.51000;    -0.18412;1.00000
136.691; 56.60000;    -0.18060;1.00000
136.871; 56.69000;    -0.18070;1.00000
137.051; 56.78000;    -0.18079;1.00000
137.231; 56.87000;    -0.18033;1.00000
137.411; 56.96000;    -0.18042;1.00000
137.591; 57.05000;    -0.17949;1.00000
137.771; 57.14000;    -0.17977;1.00000
137.951; 57.23000;    -0.17876;1.00000
138.131; 57.32000;    -0.17977;1.00000
138.311; 57.41000;    -0.17746;1.00000
138.491; 57.50000;    -0.17718;1.00000
138.671; 57.59000;    -0.17691;1.00000
138.851; 57.68000;    -0.17700;1.00000
139.031; 57.77000;    -0.17515;1.00000
139.211; 57.86000;    -0.17524;1.00000
139.391; 57.95000;    -0.17533;1.00000
139.571; 58.04000;    -0.17376;1.00000
139.751; 58.13000;    -0.17524;1.00000
139.931; 58.22000;    -0.17201;1.00000
140.111; 58.31000;    -0.17182;1.00000
140.291; 58.40000;    -0.17191;1.00000
140.471; 58.49000;    -0.17062;1.00000
140.651; 58.58000;    -0.17071;1.00000
140.831; 58.67000;    -0.16978;1.00000
141.011; 58.76000;    -0.16923;1.00000
141.191; 58.85000;    -0.16803;1.00000
141.371; 58.94000;    -0.16655;1.00000
141.551; 59.03000;    -0.16720;1.00000
141.731; 59.12000;    -0.16497;1.00000
141.911; 59.21000;    -0.16479;1.00000
142.091; 59.30000;    -0.16498;1.00000
142.271; 59.39000;    -0.16396;1.00000
142.451; 59.48000;    -0.16285;1.00000
142.631; 59.57000;    -0.16137;1.00000
142.811; 59.66000;    -0.16054;1.00000
142.991; 59.75000;    -0.15998;1.00000
143.171; 59.84000;    -0.15832;1.00000
143.351; 59.93000;    -0.15823;1.00000
143.531; 60.02000;    -0.15786;1.00000
143.711; 60.11000;    -0.15545;1.00000
143.891; 60.20000;    -0.15684;1.00000
144.071; 60.29000;    -0.15425;1.00000
144.251; 60.38000;    -0.15333;1.00000
144.431; 60.47000;    -0.15323;1.00000
144.611; 60.56000;    -0.15110;1.00000
144.791; 60.65000;    -0.14972;1.00000
144.971; 60.74000;    -0.14888;1.00000
145.151; 60.83000;    -0.14815;1.00000
145.331; 60.92000;    -0.14556;1.00000
145.511; 61.01000;    -0.14722;1.00000
145.691; 61.10000;    -0.14380;1.00000
145.871; 61.19000;    -0.14389;1.00000
146.051; 61.28000;    -0.14213;1.00000
146.231; 61.37000;    -0.14103;1.00000
146.411; 61.46000;    -0.13807;1.00000
146.591; 61.55000;    -0.13769;1.00000
146.771; 61.64000;    -0.13668;1.00000
146.951; 61.73000;    -0.13659;1.00000
147.131; 61.82000;    -0.13390;1.00000
147.311; 61.91000;    -0.13233;1.00000
147.491; 62.00000;    -0.13150;1.00000
147.671; 62.09000;    -0.12965;1.00000
147.851; 62.18000;    -0.12845;1.00000
148.031; 62.27000;    -0.12613;1.00000
148.211; 62.36000;    -0.12512;1.00000
148.391; 62.45000;    -0.12401;1.00000
148.571; 62.54000;    -0.12161;1.00000
148.751; 62.63000;    -0.12031;1.00000
148.931; 62.72000;    -0.11874;1.00000
149.111; 62.81000;    -0.11615;1.00000
149.291; 62.90000;    -0.11430;1.00000
149.471; 62.99000;    -0.11208;1.00000
149.652; 63.08000;    -0.11125;1.00000
149.832; 63.17000;    -0.10829;1.00000
150.012; 63.26000;    -0.10727;1.00000
150.191; 63.35000;    -0.10570;1.00000
150.371; 63.44000;    -0.10413;1.00000
150.552; 63.53000;    -0.10015;1.00000
150.731; 63.62000;-9.8299e-002;1.00000
150.911; 63.71000;-9.6268e-002;1.00000
151.091; 63.80000;-9.4692e-002;1.00000
151.271; 63.89000;-9.1920e-002;1.00000
151.451; 63.98000;-8.9978e-002;1.00000
151.631; 64.07000;-8.7294e-002;1.00000
151.811; 64.16000;-8.3133e-002;1.00000
151.991; 64.25000;-8.1837e-002;1.00000
152.171; 64.34000;-7.9065e-002;1.00000
152.351; 64.43000;-7.7401e-002;1.00000
152.531; 64.52000;-7.4531e-002;1.00000
152.711; 64.61000;-7.1482e-002;1.00000
152.891; 64.70000;-6.9356e-002;1.00000
153.071; 64.79000;-6.4267e-002;1.00000
153.251; 64.88000;-6.3622e-002;1.00000
153.431; 64.97000;-5.8904e-002;1.00000
153.611; 65.06000;-5.6686e-002;1.00000
153.791; 65.15000;-5.2985e-002;1.00000
153.971; 65.24000;-4.8731e-002;1.00000
154.152; 65.33000;-4.5774e-002;1.00000
154.331; 65.42000;-4.2258e-002;1.00000
154.511; 65.51000;-4.0317e-002;1.00000
154.691; 65.60000;-3.5878e-002;1.00000
154.871; 65.69000;-3.2825e-002;1.00000
155.052; 65.78000;-2.8018e-002;1.00000
155.231; 65.87000;-2.4964e-002;1.00000
155.411; 65.96000;-2.1635e-002;1.00000
155.591; 66.05000;-1.7011e-002;1.00000
155.771; 66.14000;-1.2481e-002;1.00000
155.951; 66.23000;-8.6899e-003;1.00000
156.131; 66.32000;-4.8059e-003;1.00000
156.311; 66.41000; 2.7836e-006;1.00000
156.491; 66.50000; 4.5366e-003;1.00000
156.671; 66.59000; 9.6223e-003;1.00000
156.851; 66.68000; 1.4153e-002;1.00000
157.031; 66.77000; 1.8779e-002;1.00000
157.211; 66.86000; 2.4140e-002;1.00000
157.391; 66.95000; 2.9505e-002;1.00000
157.571; 67.04000; 3.3573e-002;1.00000
157.751; 67.13000; 3.9584e-002;1.00000
157.931; 67.22000; 4.5318e-002;1.00000
158.111; 67.31000; 5.1328e-002;1.00000
158.291; 67.40000; 5.6786e-002;1.00000
158.471; 67.49000; 6.3906e-002;1.00000
158.651; 67.58000; 6.8716e-002;1.00000
158.832; 67.67000; 7.5096e-002;1.00000
159.012; 67.76000; 8.2492e-002;1.00000
159.192; 67.85000; 8.8228e-002;1.00000
159.372; 67.94000; 9.3867e-002;1.00000
159.552; 68.03000;     0.10164;1.00000
159.732; 68.12000;     0.10894;1.00000
159.912; 68.21000;     0.11578;1.00000
160.092; 68.30000;     0.12374;1.00000
160.272; 68.39000;     0.13114;1.00000
160.452; 68.48000;     0.13872;1.00000
160.632; 68.57000;     0.14686;1.00000
160.812; 68.66000;     0.15389;1.00000
160.993; 68.75000;     0.16175;1.00000
161.173; 68.84000;     0.17247;1.00000
161.353; 68.93000;     0.18043;1.00000
161.533; 69.02000;     0.19060;1.00000
161.713; 69.11000;     0.19864;1.00000
161.893; 69.20000;     0.20687;1.00000
162.073; 69.29000;     0.21964;1.00000
162.253; 69.38000;     0.22667;1.00000
162.433; 69.47000;     0.23915;1.00000
162.613; 69.56000;     0.25154;1.00000
162.793; 69.65000;     0.25959;1.00000
162.974; 69.74000;     0.27152;1.00000
163.154; 69.83000;     0.28335;1.00000
163.334; 69.92000;     0.29464;1.00000
163.514; 70.01000;     0.30555;1.00000
163.694; 70.10000;     0.31868;1.00000
163.874; 70.19000;     0.33126;1.00000
164.054; 70.28000;     0.34328;1.00000
164.234; 70.37000;     0.35697;1.00000
164.414; 70.46000;     0.37065;1.00000
164.594; 70.55000;     0.38462;1.00000
164.774; 70.64000;     0.39812;1.00000
164.954; 70.73000;     0.41338;1.00000
165.134; 70.82000;     0.42771;1.00000
165.314; 70.91000;     0.44288;1.00000
165.494; 71.00000;     0.45879;1.00000
165.674; 71.09000;     0.47506;1.00000
165.854; 71.18000;     0.49263;1.00000
166.034; 71.27000;     0.50854;1.00000
166.214; 71.36000;     0.52675;1.00000
166.394; 71.45000;     0.54294;1.00000
166.574; 71.54000;     0.56153;1.00000
166.755; 71.63000;     0.58150;1.00000
166.935; 71.72000;     0.60055;1.00000
167.115; 71.81000;     0.61942;1.00000
167.295; 71.90000;     0.64198;1.00000
167.475; 71.99000;     0.66177;1.00000
167.655; 72.08000;     0.68240;1.00000
167.835; 72.17000;     0.70459;1.00000
168.015; 72.26000;     0.72697;1.00000
168.195; 72.35000;     0.75212;1.00000
168.375; 72.44000;     0.77912;1.00000
168.555; 72.53000;     0.80724;1.00000
168.735; 72.62000;     0.83619;1.00000
168.915; 72.71000;     0.86698;1.00000
169.095; 72.80000;     0.89925;1.00000
169.275; 72.89000;     0.93421;1.00000
169.455; 72.98000;     0.96935;1.00000
169.635; 73.07000;     1.00745;1.00000
169.815; 73.16000;     1.04426;1.00000
169.995; 73.25000;     1.08347;1.00000
170.175; 73.34000;     1.12379;1.00000
170.355; 73.43000;     1.16420;1.00000
170.535; 73.52000;     1.20323;1.00000
170.715; 73.61000;     1.24540;1.00000
170.895; 73.70000;     1.28396;1.00000
171.075; 73.79000;     1.32419;1.00000
171.255; 73.88000;     1.36257;1.00000
171.435; 73.97000;     1.39928;1.00000
171.615; 74.06000;     1.43692;1.00000
171.795; 74.15000;     1.46984;1.00000
171.975; 74.24000;     1.50415;1.00000
172.155; 74.33000;     1.53670;1.00000
172.335; 74.42000;     1.56482;1.00000
172.515; 74.51000;     1.58941;1.00000
172.695; 74.60000;     1.61263;1.00000
172.875; 74.69000;     1.63371;1.00000
173.055; 74.78000;     1.65156;1.00000
173.235; 74.87000;     1.66802;1.00000
173.415; 74.96000;     1.67976;1.00000
173.595; 75.05000;     1.69031;1.00000
173.775; 75.14000;     1.69558;1.00000
173.955; 75.23000;     1.69955;1.00000
174.135; 75.32000;     1.69928;1.00000
174.315; 75.41000;     1.69595;1.00000
174.495; 75.50000;     1.69058;1.00000
174.675; 75.59000;     1.68300;1.00000
174.855; 75.68000;     1.67107;1.00000
175.035; 75.77000;     1.65905;1.00000
175.215; 75.86000;     1.64296;1.00000
175.395; 75.95000;     1.62483;1.00000
175.575; 76.04000;     1.60467;1.00000
175.755; 76.13000;     1.58155;1.00000
175.935; 76.22000;     1.55982;1.00000
176.115; 76.31000;     1.53522;1.00000
176.295; 76.40000;     1.50970;1.00000
176.475; 76.49000;     1.48186;1.00000
176.655; 76.58000;     1.45421;1.00000
176.835; 76.67000;     1.42527;1.00000
177.015; 76.76000;     1.39651;1.00000
177.195; 76.85000;     1.36442;1.00000
177.375; 76.94000;     1.33344;1.00000
177.555; 77.03000;     1.30209;1.00000
177.735; 77.12000;     1.27129;1.00000
177.915; 77.21000;     1.24003;1.00000
178.095; 77.30000;     1.20850;1.00000
178.275; 77.39000;     1.17752;1.00000
178.455; 77.48000;     1.14654;1.00000
178.635; 77.57000;     1.11686;1.00000
178.815; 77.66000;     1.08680;1.00000
178.995; 77.75000;     1.05647;1.00000
179.175; 77.84000;     1.02650;1.00000
179.355; 77.93000;     0.99858;1.00000
179.535; 78.02000;     0.97148;1.00000
179.715; 78.11000;     0.94466;1.00000
179.895; 78.20000;     0.91710;1.00000
180.075; 78.29000;     0.88871;1.00000
180.255; 78.38000;     0.86522;1.00000
180.435; 78.47000;     0.83970;1.00000
180.615; 78.56000;     0.81427;1.00000
180.795; 78.65000;     0.79152;1.00000
180.975; 78.74000;     0.76766;1.00000
181.155; 78.83000;     0.74695;1.00000
181.335; 78.92000;     0.72262;1.00000
181.515; 79.01000;     0.70107;1.00000
181.695; 79.10000;     0.68055;1.00000
181.875; 79.19000;     0.66029;1.00000
182.055; 79.28000;     0.63948;1.00000
182.235; 79.37000;     0.62016;1.00000
182.415; 79.46000;     0.60397;1.00000
182.595; 79.55000;     0.58428;1.00000
182.775; 79.64000;     0.56643;1.00000
182.954; 79.73000;     0.55098;1.00000
183.134; 79.82000;     0.53304;1.00000
183.314; 79.91000;     0.51547;1.00000
183.495; 80.00000;     0.49892;1.00000
183.675; 80.09000;     0.48477;1.00000
183.855; 80.18000;     0.46849;1.00000
184.035; 80.27000;     0.45509;1.00000
184.214; 80.36000;     0.43918;1.00000
184.394; 80.45000;     0.42706;1.00000
184.575; 80.54000;     0.41403;1.00000
184.755; 80.63000;     0.39904;1.00000
184.935; 80.72000;     0.38721;1.00000
185.115; 80.81000;     0.37454;1.00000
185.295; 80.90000;     0.36178;1.00000
185.475; 80.99000;     0.35077;1.00000
185.655; 81.08000;     0.33745;1.00000
185.835; 81.17000;     0.32774;1.00000
186.015; 81.26000;     0.31729;1.00000
186.195; 81.35000;     0.30657;1.00000
186.375; 81.44000;     0.29519;1.00000
186.555; 81.53000;     0.28502;1.00000
186.735; 81.62000;     0.27476;1.00000
186.914; 81.71000;     0.26560;1.00000
187.095; 81.80000;     0.25719;1.00000
187.275; 81.89000;     0.24738;1.00000
187.455; 81.98000;     0.23702;1.00000
187.635; 82.07000;     0.22805;1.00000
187.815; 82.16000;     0.22010;1.00000
187.995; 82.25000;     0.21021;1.00000
188.175; 82.34000;     0.20234;1.00000
188.355; 82.43000;     0.19291;1.00000
188.535; 82.52000;     0.18662;1.00000
188.715; 82.61000;     0.17774;1.00000
188.895; 82.70000;     0.17127;1.00000
189.075; 82.79000;     0.16332;1.00000
189.255; 82.88000;     0.15722;1.00000
189.435; 82.97000;     0.15046;1.00000
189.615; 83.06000;     0.14242;1.00000
189.795; 83.15000;     0.13641;1.00000
189.975; 83.24000;     0.12910;1.00000
190.155; 83.33000;     0.12374;1.00000
190.335; 83.42000;     0.11643;1.00000
190.515; 83.51000;     0.11144;1.00000
190.695; 83.60000;     0.10478;1.00000
190.875; 83.69000; 9.8215e-002;1.00000
191.055; 83.78000; 9.2944e-002;1.00000
191.234; 83.87000; 8.6657e-002;1.00000
191.414; 83.96000; 8.1106e-002;1.00000
191.594; 84.05000; 7.6946e-002;1.00000
191.774; 84.14000; 7.0195e-002;1.00000
191.954; 84.23000; 6.6773e-002;1.00000
192.134; 84.32000; 5.9930e-002;1.00000
192.315; 84.41000; 5.4659e-002;1.00000
192.495; 84.50000; 5.0960e-002;1.00000
192.675; 84.59000; 4.5687e-002;1.00000
192.855; 84.68000; 4.2265e-002;1.00000
193.035; 84.77000; 3.5977e-002;1.00000
193.215; 84.86000; 3.2370e-002;1.00000
193.395; 84.95000; 2.9227e-002;1.00000
193.575; 85.04000; 2.5065e-002;1.00000
193.755; 85.13000; 1.9887e-002;1.00000
193.935; 85.22000; 1.4802e-002;1.00000
194.115; 85.31000; 1.0175e-002;1.00000
194.295; 85.40000; 6.6636e-003;1.00000
194.475; 85.49000; 2.5929e-003;1.00000
194.655; 85.58000;-2.2157e-003;1.00000
194.835; 85.67000;-5.1736e-003;1.00000
195.015; 85.76000;-8.1349e-003;1.00000
195.195; 85.85000;-1.2481e-002;1.00000
195.375; 85.94000;-1.5532e-002;1.00000
195.555; 86.03000;-2.0436e-002;1.00000
195.735; 86.12000;-2.4318e-002;1.00000
195.915; 86.21000;-2.6723e-002;1.00000
196.095; 86.30000;-2.9587e-002;1.00000
196.275; 86.39000;-3.3381e-002;1.00000
196.455; 86.48000;-3.7079e-002;1.00000
196.635; 86.57000;-3.8003e-002;1.00000
196.815; 86.66000;-4.1427e-002;1.00000
196.995; 86.75000;-4.4940e-002;1.00000
197.175; 86.84000;-4.8177e-002;1.00000
197.355; 86.93000;-5.0766e-002;1.00000
197.535; 87.02000;-5.3263e-002;1.00000
197.715; 87.11000;-5.5391e-002;1.00000
197.895; 87.20000;-5.8163e-002;1.00000
198.075; 87.29000;-6.1401e-002;1.00000
198.255; 87.38000;-6.4452e-002;1.00000
198.435; 87.47000;-6.5562e-002;1.00000
198.615; 87.56000;-6.8894e-002;1.00000
198.794; 87.65000;-7.1295e-002;1.00000
198.974; 87.74000;-7.3886e-002;1.00000
199.154; 87.83000;-7.6845e-002;1.00000
199.334; 87.92000;-7.6937e-002;1.00000
199.514; 88.01000;-7.8972e-002;1.00000
199.694; 88.10000;-8.1836e-002;1.00000
199.874; 88.19000;-8.3595e-002;1.00000
200.054; 88.28000;-8.5446e-002;1.00000
200.234; 88.37000;-8.8868e-002;1.00000
200.414; 88.46000;-9.0347e-002;1.00000
200.594; 88.55000;-9.2102e-002;1.00000
200.775; 88.64000;-9.2751e-002;1.00000
200.955; 88.73000;-9.4693e-002;1.00000
201.135; 88.82000;-9.5709e-002;1.00000
201.315; 88.91000;-9.7840e-002;1.00000
201.495; 89.00000;-9.9040e-002;1.00000
201.675; 89.09000;    -0.10117;1.00000
201.855; 89.18000;    -0.10385;1.00000
202.035; 89.27000;    -0.10366;1.00000
202.215; 89.36000;    -0.10450;1.00000
202.395; 89.45000;    -0.10616;1.00000
202.575; 89.54000;    -0.10690;1.00000
202.754; 89.63000;    -0.10875;1.00000
202.934; 89.72000;    -0.11004;1.00000
203.114; 89.81000;    -0.11152;1.00000
203.294; 89.90000;    -0.11199;1.00000
203.474; 89.99000;    -0.11384;1.00000
203.654; 90.08000;    -0.11430;1.00000
203.834; 90.17000;    -0.11550;1.00000
204.014; 90.26000;    -0.11605;1.00000
204.194; 90.35000;    -0.11716;1.00000
204.374; 90.44000;    -0.11781;1.00000
204.554; 90.53000;    -0.11837;1.00000
204.734; 90.62000;    -0.11975;1.00000
204.914; 90.71000;    -0.12133;1.00000
205.095; 90.80000;    -0.12142;1.00000
205.275; 90.89000;    -0.12234;1.00000
205.455; 90.98000;    -0.12253;1.00000
205.635; 91.07000;    -0.12391;1.00000
205.815; 91.16000;    -0.12475;1.00000
205.995; 91.25000;    -0.12577;1.00000
206.175; 91.34000;    -0.12586;1.00000
206.355; 91.43000;    -0.12660;1.00000
206.535; 91.52000;    -0.12752;1.00000
206.715; 91.61000;    -0.12854;1.00000
206.895; 91.70000;    -0.12845;1.00000
207.075; 91.79000;    -0.12891;1.00000
207.255; 91.88000;    -0.12993;1.00000
207.435; 91.97000;    -0.13104;1.00000
207.615; 92.06000;    -0.13122;1.00000
207.795; 92.15000;    -0.13400;1.00000
207.975; 92.24000;    -0.13418;1.00000
208.155; 92.33000;    -0.13390;1.00000
208.335; 92.42000;    -0.13585;1.00000
208.515; 92.51000;    -0.13455;1.00000
208.695; 92.60000;    -0.13492;1.00000
208.875; 92.69000;    -0.13714;1.00000
209.055; 92.78000;    -0.13760;1.00000
209.235; 92.87000;    -0.13538;1.00000
209.415; 92.96000;    -0.13649;1.00000
209.595; 93.05000;    -0.13686;1.00000
209.775; 93.14000;    -0.13603;1.00000
209.955; 93.23000;    -0.13585;1.00000
210.135; 93.32000;    -0.13353;1.00000
210.315; 93.41000;    -0.12752;1.00000
210.495; 93.50000;    -0.12438;1.00000
210.675; 93.59000;    -0.12355;1.00000
210.855; 93.68000;    -0.12290;1.00000
211.035; 93.77000;    -0.12207;1.00000
211.215; 93.86000;    -0.12244;1.00000
211.395; 93.95000;    -0.12364;1.00000
211.575; 94.04000;    -0.12308;1.00000
211.755; 94.13000;    -0.12262;1.00000
211.935; 94.22000;    -0.12244;1.00000
212.115; 94.31000;    -0.12364;1.00000
212.295; 94.40000;    -0.12392;1.00000
212.475; 94.49000;    -0.12382;1.00000
212.655; 94.58000;    -0.12225;1.00000
212.835; 94.67000;    -0.12253;1.00000
213.015; 94.76000;    -0.12197;1.00000
213.195; 94.85000;    -0.12234;1.00000
213.375; 94.94000;    -0.12207;1.00000
213.555; 95.03000;    -0.12170;1.00000
213.735; 95.12000;    -0.12114;1.00000
213.915; 95.21000;    -0.12299;1.00000
214.095; 95.30000;    -0.12345;1.00000
214.275; 95.39000;    -0.12318;1.00000
214.455; 95.48000;    -0.12271;1.00000
214.635; 95.57000;    -0.12234;1.00000
214.815; 95.66000;    -0.12308;1.00000
214.995; 95.75000;    -0.12188;1.00000
215.175; 95.84000;    -0.12207;1.00000
215.355; 95.93000;    -0.12161;1.00000
215.535; 96.02000;    -0.12244;1.00000
215.715; 96.11000;    -0.12207;1.00000
215.895; 96.20000;    -0.12271;1.00000
216.075; 96.29000;    -0.12096;1.00000
216.255; 96.38000;    -0.12151;1.00000
216.435; 96.47000;    -0.12096;1.00000
216.615; 96.56000;    -0.12327;1.00000
216.795; 96.65000;    -0.12123;1.00000
216.975; 96.74000;    -0.12160;1.00000
217.155; 96.83000;    -0.12244;1.00000
217.335; 96.92000;    -0.12022;1.00000
217.515; 97.01000;    -0.12040;1.00000
217.695; 97.10000;    -0.12105;1.00000
217.875; 97.19000;    -0.12114;1.00000
218.055; 97.28000;    -0.12077;1.00000
218.235; 97.37000;    -0.12095;1.00000
218.415; 97.46000;    -0.12068;1.00000
218.595; 97.55000;    -0.12049;1.00000
218.775; 97.64000;    -0.12086;1.00000
218.955; 97.73000;    -0.12123;1.00000
219.135; 97.82000;    -0.11957;1.00000
219.315; 97.91000;    -0.11976;1.00000
219.495; 98.00000;    -0.11975;1.00000
219.675; 98.09000;    -0.11975;1.00000
219.855; 98.18000;    -0.12050;1.00000
220.035; 98.27000;    -0.12058;1.00000
220.215; 98.36000;    -0.11994;1.00000
220.395; 98.45000;    -0.11966;1.00000
220.575; 98.54000;    -0.11901;1.00000
220.755; 98.63000;    -0.11920;1.00000
220.935; 98.72000;    -0.11901;1.00000
221.115; 98.81000;    -0.11846;1.00000
221.295; 98.90000;    -0.11938;1.00000
221.475; 98.99000;    -0.12003;1.00000
221.655; 99.08000;    -0.11985;1.00000
221.835; 99.17000;    -0.11966;1.00000
222.015; 99.26000;    -0.11985;1.00000
222.195; 99.35000;    -0.11827;1.00000
222.375; 99.44000;    -0.12096;1.00000
222.555; 99.53000;    -0.11855;1.00000
222.735; 99.62000;    -0.11809;1.00000
222.915; 99.71000;    -0.11920;1.00000
223.095; 99.80000;    -0.11994;1.00000
223.275; 99.89000;    -0.11791;1.00000
223.455; 99.98000;    -0.11864;1.00000
223.635;100.07;    -0.11901;1.00000
223.815;100.16;    -0.11892;1.00000
223.995;100.25;    -0.11874;1.00000
224.175;100.34;    -0.11791;1.00000
224.355;100.43;    -0.11828;1.00000
224.535;100.52;    -0.11855;1.00000
224.715;100.61;    -0.11855;1.00000
224.895;100.7;    -0.11689;1.00000
225.075;100.79;    -0.11800;1.00000
225.255;100.88;    -0.11735;1.00000
225.435;100.97;    -0.11735;1.00000
225.615;101.06;    -0.11754;1.00000
225.795;101.15;    -0.11754;1.00000
225.975;101.24;    -0.11763;1.00000
226.155;101.33;    -0.11754;1.00000
226.335;101.42;    -0.11753;1.00000
226.515;101.51;    -0.11791;1.00000
226.695;101.6;    -0.11689;1.00000
226.875;101.69;    -0.11698;1.00000
227.055;101.78;    -0.11661;1.00000
227.235;101.87;    -0.11707;1.00000
227.415;101.96;    -0.11634;1.00000
227.595;102.05;    -0.11624;1.00000
227.775;102.14;    -0.11624;1.00000
227.955;102.23;    -0.11670;1.00000
228.135;102.32;    -0.11698;1.00000
228.315;102.41;    -0.11670;1.00000
228.495;102.5;    -0.11605;1.00000
228.675;102.59;    -0.11578;1.00000
228.855;102.68;    -0.11643;1.00000
229.035;102.77;    -0.11605;1.00000
229.215;102.86;    -0.11661;1.00000
229.395;102.95;    -0.11596;1.00000
229.575;103.04;    -0.11633;1.00000
229.755;103.13;    -0.11578;1.00000
229.935;103.22;    -0.11559;1.00000
230.115;103.31;    -0.11680;1.00000
230.295;103.4;    -0.11605;1.00000
230.475;103.49;    -0.11476;1.00000
230.655;103.58;    -0.11578;1.00000
230.835;103.67;    -0.11485;1.00000
231.015;103.76;    -0.11486;1.00000
231.195;103.85;    -0.11504;1.00000
231.375;103.94;    -0.11485;1.00000
231.555;104.03;    -0.11467;1.00000
231.735;104.12;    -0.11504;1.00000
231.915;104.21;    -0.11439;1.00000
232.095;104.3;    -0.11532;1.00000
232.275;104.39;    -0.11393;1.00000
232.455;104.48;    -0.11374;1.00000
232.635;104.57;    -0.11430;1.00000
232.815;104.66;    -0.11495;1.00000
232.995;104.75;    -0.11310;1.00000
233.175;104.84;    -0.11411;1.00000
233.355;104.93;    -0.11254;1.00000
233.535;105.02;    -0.11467;1.00000
233.715;105.11;    -0.11365;1.00000
233.895;105.2;    -0.11374;1.00000
234.075;105.29;    -0.11245;1.00000
234.255;105.38;    -0.11263;1.00000
234.435;105.47;    -0.11208;1.00000
234.615;105.56;    -0.11412;1.00000
234.795;105.65;    -0.11226;1.00000
234.975;105.74;    -0.11291;1.00000
235.155;105.83;    -0.11245;1.00000
235.335;105.92;    -0.11208;1.00000
235.515;106.01;    -0.11199;1.00000
235.695;106.1;    -0.11115;1.00000
235.875;106.19;    -0.11097;1.00000
236.055;106.28;    -0.11069;1.00000
236.235;106.37;    -0.11051;1.00000
236.415;106.46;    -0.11078;1.00000
236.595;106.55;    -0.11162;1.00000
236.775;106.64;    -0.11079;1.00000
236.955;106.73;    -0.11088;1.00000
237.135;106.82;    -0.10995;1.00000
237.315;106.91;    -0.11134;1.00000
237.495;107;    -0.10903;1.00000
237.675;107.09;    -0.10940;1.00000
237.855;107.18;    -0.11088;1.00000
238.035;107.27;    -0.11041;1.00000
238.215;107.36;    -0.10995;1.00000
238.395;107.45;    -0.10940;1.00000
238.575;107.54;    -0.10856;1.00000
238.755;107.63;    -0.10829;1.00000
238.935;107.72;    -0.10773;1.00000
239.115;107.81;    -0.10699;1.00000
239.295;107.9;    -0.10829;1.00000
239.475;107.99;    -0.10773;1.00000
239.655;108.08;    -0.10773;1.00000
239.835;108.17;    -0.10746;1.00000
240.015;108.26;    -0.10634;1.00000
240.195;108.35;    -0.10662;1.00000
240.375;108.44;    -0.10570;1.00000
240.555;108.53;    -0.10579;1.00000
240.735;108.62;    -0.10570;1.00000
240.915;108.71;    -0.10533;1.00000
241.095;108.8;    -0.10598;1.00000
241.275;108.89;    -0.10616;1.00000
241.455;108.98;    -0.10598;1.00000
241.635;109.07;    -0.10533;1.00000
241.815;109.16;    -0.10450;1.00000
241.995;109.25;    -0.10496;1.00000
242.175;109.34;    -0.10468;1.00000
242.355;109.43;    -0.10477;1.00000
242.535;109.52;    -0.10385;1.00000
242.715;109.61;    -0.10376;1.00000
242.895;109.7;    -0.10450;1.00000
243.075;109.79;    -0.10255;1.00000
243.255;109.88;    -0.10302;1.00000
243.435;109.97;    -0.10301;1.00000
243.616;110.06;    -0.10468;1.00000
243.796;110.15;    -0.10301;1.00000
243.976;110.24;    -0.10320;1.00000
244.156;110.33;    -0.10265;1.00000
244.336;110.42;    -0.10265;1.00000
244.516;110.51;    -0.10200;1.00000
244.696;110.6;    -0.10144;1.00000
244.876;110.69;    -0.10200;1.00000
245.056;110.78;    -0.10144;1.00000
245.236;110.87;    -0.10200;1.00000
245.416;110.96;    -0.10033;1.00000