File: src/data/kinetics/singlepeaks/q-4.txt
#EXPORTTYPE:DATA SINGLE
#FTYPE:ANSI
#IDENTITY:001926
#DECIMAL:POINT
#SEPARATOR:SEMICOLON
#DATE/TIME:15.12.2016 08:08
#TEMPCAL:TCALZERO.TMX
#SENSITIVITY:SENSZERO.EXX
#REMARK:
#SAMPLE:ÂÊ-36
#SAMPLE MASS /mg:8.16
#MATERIAL:íåò
#REFERENCE:
#REFERENCE MASS /mg:0
#TYPE OF CRUCIBLE:Pan Al, closed
#SAMPLE CRUCIBLE MASS /mg:0
#REFERENCE CRUCIBLE MASS /mg:0
#M.RANGE /µV:5000
#TAU-R:---
#CORR. CODE:020
#EXO:+1
#RANGE:-10°C/4,0(K/min)/270°C
#SEGMENT:S2/3
#SEG. 2:-10°C/4,0(K/min)/270°C

##Temp./°C;Time/min;DSC/(uV/mg);Sensit./(uV/mW)
 31.28046;11.97300;    -0.37331;1.00000
 31.47396;12.02300;    -0.37338;1.00000
 31.66770;12.07300;    -0.37307;1.00000
 31.86157;12.12300;    -0.37396;1.00000
 32.05563;12.17300;    -0.37592;1.00000
 32.24983;12.22300;    -0.37560;1.00000
 32.44422;12.27300;    -0.37730;1.00000
 32.63885;12.32300;    -0.37765;1.00000
 32.83363;12.37300;    -0.37832;1.00000
 33.02848;12.42300;    -0.37816;1.00000
 33.22360;12.47300;    -0.37879;1.00000
 33.41886;12.52300;    -0.37917;1.00000
 33.61425;12.57300;    -0.38007;1.00000
 33.80994;12.62300;    -0.38031;1.00000
 34.00581;12.67300;    -0.38128;1.00000
 34.20196;12.72300;    -0.38243;1.00000
 34.39816;12.77300;    -0.38219;1.00000
 34.59457;12.82300;    -0.38285;1.00000
 34.79106;12.87300;    -0.38382;1.00000
 34.98773;12.92300;    -0.38429;1.00000
 35.18460;12.97300;    -0.38530;1.00000
 35.38160;13.02300;    -0.38563;1.00000
 35.57854;13.07300;    -0.38528;1.00000
 35.77558;13.12300;    -0.38549;1.00000
 35.97262;13.17300;    -0.38558;1.00000
 36.16982;13.22300;    -0.38634;1.00000
 36.36709;13.27300;    -0.38692;1.00000
 36.56448;13.32300;    -0.38746;1.00000
 36.76199;13.37300;    -0.38728;1.00000
 36.95955;13.42300;    -0.38915;1.00000
 37.15714;13.47300;    -0.38999;1.00000
 37.35486;13.52300;    -0.38910;1.00000
 37.55271;13.57300;    -0.38922;1.00000
 37.75071;13.62300;    -0.39078;1.00000
 37.94885;13.67300;    -0.38936;1.00000
 38.14696;13.72300;    -0.39026;1.00000
 38.34524;13.77300;    -0.39125;1.00000
 38.54345;13.82300;    -0.39208;1.00000
 38.74185;13.87300;    -0.39244;1.00000
 38.94038;13.92300;    -0.39255;1.00000
 39.13897;13.97300;    -0.39277;1.00000
 39.33754;14.02300;    -0.39360;1.00000
 39.53614;14.07300;    -0.39275;1.00000
 39.73483;14.12300;    -0.39326;1.00000
 39.93360;14.17300;    -0.39387;1.00000
 40.13246;14.22300;    -0.39456;1.00000
 40.33128;14.27300;    -0.39488;1.00000
 40.53030;14.32300;    -0.39398;1.00000
 40.72930;14.37300;    -0.39466;1.00000
 40.92830;14.42300;    -0.39587;1.00000
 41.12729;14.47300;    -0.39663;1.00000
 41.32642;14.52300;    -0.39568;1.00000
 41.52568;14.57300;    -0.39691;1.00000
 41.72483;14.62300;    -0.39588;1.00000
 41.92419;14.67300;    -0.39780;1.00000
 42.12348;14.72300;    -0.39777;1.00000
 42.32294;14.77300;    -0.39740;1.00000
 42.52237;14.82300;    -0.39842;1.00000
 42.72184;14.87300;    -0.39799;1.00000
 42.92137;14.92300;    -0.39863;1.00000
 43.12090;14.97300;    -0.39952;1.00000
 43.32052;15.02300;    -0.39985;1.00000
 43.52011;15.07300;    -0.39918;1.00000
 43.71968;15.12300;    -0.40030;1.00000
 43.91935;15.17300;    -0.39967;1.00000
 44.11904;15.22300;    -0.39902;1.00000
 44.31864;15.27300;    -0.40078;1.00000
 44.51837;15.32300;    -0.39983;1.00000
 44.71807;15.37300;    -0.40115;1.00000
 44.91784;15.42300;    -0.40226;1.00000
 45.11759;15.47300;    -0.40094;1.00000
 45.31741;15.52300;    -0.40184;1.00000
 45.51723;15.57300;    -0.40276;1.00000
 45.71712;15.62300;    -0.40191;1.00000
 45.91694;15.67300;    -0.40171;1.00000
 46.11670;15.72300;    -0.40163;1.00000
 46.31653;15.77300;    -0.40324;1.00000
 46.51639;15.82300;    -0.40187;1.00000
 46.71629;15.87300;    -0.40303;1.00000
 46.91614;15.92300;    -0.40347;1.00000
 47.11604;15.97300;    -0.40301;1.00000
 47.31587;16.02300;    -0.40314;1.00000
 47.51573;16.07300;    -0.40397;1.00000
 47.71577;16.12300;    -0.40350;1.00000
 47.91570;16.17300;    -0.40431;1.00000
 48.11579;16.22300;    -0.40445;1.00000
 48.31601;16.27300;    -0.40414;1.00000
 48.51604;16.32300;    -0.40464;1.00000
 48.71606;16.37300;    -0.40427;1.00000
 48.91616;16.42300;    -0.40389;1.00000
 49.11630;16.47300;    -0.40454;1.00000
 49.31644;16.52300;    -0.40333;1.00000
 49.51645;16.57300;    -0.40449;1.00000
 49.71657;16.62300;    -0.40473;1.00000
 49.91676;16.67300;    -0.40492;1.00000
 50.11675;16.72300;    -0.40511;1.00000
 50.31673;16.77300;    -0.40461;1.00000
 50.51674;16.82300;    -0.40494;1.00000
 50.71687;16.87300;    -0.40625;1.00000
 50.91700;16.92300;    -0.40613;1.00000
 51.11714;16.97300;    -0.40540;1.00000
 51.31724;17.02300;    -0.40569;1.00000
 51.51745;17.07300;    -0.40645;1.00000
 51.71759;17.12300;    -0.40493;1.00000
 51.91769;17.17300;    -0.40681;1.00000
 52.11781;17.22300;    -0.40612;1.00000
 52.31799;17.27300;    -0.40624;1.00000
 52.51816;17.32300;    -0.40571;1.00000
 52.71834;17.37300;    -0.40596;1.00000
 52.91839;17.42300;    -0.40670;1.00000
 53.11847;17.47300;    -0.40568;1.00000
 53.31854;17.52300;    -0.40650;1.00000
 53.51873;17.57300;    -0.40625;1.00000
 53.71887;17.62300;    -0.40633;1.00000
 53.91914;17.67300;    -0.40652;1.00000
 54.11930;17.72300;    -0.40654;1.00000
 54.31938;17.77300;    -0.40697;1.00000
 54.51953;17.82300;    -0.40699;1.00000
 54.71969;17.87300;    -0.40661;1.00000
 54.91988;17.92300;    -0.40678;1.00000
 55.12014;17.97300;    -0.40604;1.00000
 55.32040;18.02300;    -0.40622;1.00000
 55.52065;18.07300;    -0.40718;1.00000
 55.72079;18.12300;    -0.40727;1.00000
 55.92084;18.17300;    -0.40700;1.00000
 56.12110;18.22300;    -0.40782;1.00000
 56.32128;18.27300;    -0.40688;1.00000
 56.52151;18.32300;    -0.40783;1.00000
 56.72173;18.37300;    -0.40719;1.00000
 56.92194;18.42300;    -0.40710;1.00000
 57.12210;18.47300;    -0.40755;1.00000
 57.32226;18.52300;    -0.40773;1.00000
 57.52247;18.57300;    -0.40804;1.00000
 57.72269;18.62300;    -0.40748;1.00000
 57.92296;18.67300;    -0.40766;1.00000
 58.12302;18.72300;    -0.40757;1.00000
 58.32328;18.77300;    -0.40721;1.00000
 58.52337;18.82300;    -0.40767;1.00000
 58.72351;18.87300;    -0.40688;1.00000
 58.92368;18.92300;    -0.40782;1.00000
 59.12381;18.97300;    -0.40723;1.00000
 59.32385;19.02300;    -0.40765;1.00000
 59.52394;19.07300;    -0.40828;1.00000
 59.72406;19.12300;    -0.40856;1.00000
 59.92414;19.17300;    -0.40727;1.00000
 60.12434;19.22300;    -0.40875;1.00000
 60.32455;19.27300;    -0.40812;1.00000
 60.52475;19.32300;    -0.40784;1.00000
 60.72489;19.37300;    -0.40895;1.00000
 60.92504;19.42300;    -0.40840;1.00000
 61.12524;19.47300;    -0.40791;1.00000
 61.32559;19.52300;    -0.40746;1.00000
 61.52578;19.57300;    -0.40898;1.00000
 61.72600;19.62300;    -0.40850;1.00000
 61.92618;19.67300;    -0.40962;1.00000
 62.12637;19.72300;    -0.40936;1.00000
 62.32659;19.77300;    -0.40893;1.00000
 62.52667;19.82300;    -0.40860;1.00000
 62.72689;19.87300;    -0.40869;1.00000
 62.92698;19.92300;    -0.40927;1.00000
 63.12716;19.97300;    -0.40991;1.00000
 63.32722;20.02300;    -0.40963;1.00000
 63.52731;20.07300;    -0.40894;1.00000
 63.72734;20.12300;    -0.40974;1.00000
 63.92743;20.17300;    -0.40829;1.00000
 64.12757;20.22300;    -0.40980;1.00000
 64.32757;20.27300;    -0.40972;1.00000
 64.52781;20.32300;    -0.40953;1.00000
 64.72802;20.37300;    -0.41037;1.00000
 64.92835;20.42300;    -0.41093;1.00000
 65.12859;20.47300;    -0.41026;1.00000
 65.32871;20.52300;    -0.40973;1.00000
 65.52896;20.57300;    -0.41209;1.00000
 65.72926;20.62300;    -0.41148;1.00000
 65.92937;20.67300;    -0.41129;1.00000
 66.12957;20.72300;    -0.41072;1.00000
 66.32979;20.77300;    -0.41085;1.00000
 66.52994;20.82300;    -0.41008;1.00000
 66.73008;20.87300;    -0.41017;1.00000
 66.93016;20.92300;    -0.41008;1.00000
 67.13028;20.97300;    -0.41093;1.00000
 67.33054;21.02300;    -0.41052;1.00000
 67.53067;21.07300;    -0.41147;1.00000
 67.73079;21.12300;    -0.41177;1.00000
 67.93106;21.17300;    -0.41178;1.00000
 68.13110;21.22300;    -0.41122;1.00000
 68.33126;21.27300;    -0.41195;1.00000
 68.53130;21.32300;    -0.41178;1.00000
 68.73136;21.37300;    -0.41190;1.00000
 68.93139;21.42300;    -0.40932;1.00000
 69.13145;21.47300;    -0.41123;1.00000
 69.33140;21.52300;    -0.41001;1.00000
 69.53145;21.57300;    -0.41179;1.00000
 69.73153;21.62300;    -0.41138;1.00000
 69.93147;21.67300;    -0.41202;1.00000
 70.13159;21.72300;    -0.41233;1.00000
 70.33167;21.77300;    -0.41111;1.00000
 70.53175;21.82300;    -0.41196;1.00000
 70.73183;21.87300;    -0.41185;1.00000
 70.93200;21.92300;    -0.41170;1.00000
 71.13210;21.97300;    -0.41259;1.00000
 71.33220;22.02300;    -0.41213;1.00000
 71.53231;22.07300;    -0.41251;1.00000
 71.73228;22.12300;    -0.41196;1.00000
 71.93231;22.17300;    -0.41206;1.00000
 72.13233;22.22300;    -0.41325;1.00000
 72.33234;22.27300;    -0.41239;1.00000
 72.53237;22.32300;    -0.41246;1.00000
 72.73236;22.37300;    -0.41241;1.00000
 72.93231;22.42300;    -0.41222;1.00000
 73.13232;22.47300;    -0.41243;1.00000
 73.33238;22.52300;    -0.41347;1.00000
 73.53237;22.57300;    -0.41273;1.00000
 73.73242;22.62300;    -0.41403;1.00000
 73.93261;22.67300;    -0.41429;1.00000
 74.13271;22.72300;    -0.41390;1.00000
 74.33285;22.77300;    -0.41440;1.00000
 74.53290;22.82300;    -0.41465;1.00000
 74.73296;22.87300;    -0.41477;1.00000
 74.93302;22.92300;    -0.41512;1.00000
 75.13310;22.97300;    -0.41449;1.00000
 75.33310;23.02300;    -0.41381;1.00000
 75.53310;23.07300;    -0.41452;1.00000
 75.73312;23.12300;    -0.41524;1.00000
 75.93304;23.17300;    -0.41466;1.00000
 76.13304;23.22300;    -0.41513;1.00000
 76.33310;23.27300;    -0.41371;1.00000
 76.53316;23.32300;    -0.41449;1.00000
 76.73330;23.37300;    -0.41598;1.00000
 76.93343;23.42300;    -0.41634;1.00000
 77.13351;23.47300;    -0.41486;1.00000
 77.33361;23.52300;    -0.41532;1.00000
 77.53371;23.57300;    -0.41542;1.00000
 77.73381;23.62300;    -0.41619;1.00000
 77.93384;23.67300;    -0.41605;1.00000
 78.13396;23.72300;    -0.41800;1.00000
 78.33404;23.77300;    -0.41717;1.00000
 78.53414;23.82300;    -0.41560;1.00000
 78.73428;23.87300;    -0.41632;1.00000
 78.93433;23.92300;    -0.41589;1.00000
 79.13439;23.97300;    -0.41680;1.00000
 79.33442;24.02300;    -0.41673;1.00000
 79.53455;24.07300;    -0.41717;1.00000
 79.73467;24.12300;    -0.41728;1.00000
 79.93480;24.17300;    -0.41763;1.00000
 80.13492;24.22300;    -0.41804;1.00000
 80.33491;24.27300;    -0.41726;1.00000
 80.53506;24.32300;    -0.41770;1.00000
 80.73498;24.37300;    -0.41757;1.00000
 80.93508;24.42300;    -0.41784;1.00000
 81.13518;24.47300;    -0.41817;1.00000
 81.33518;24.52300;    -0.41710;1.00000
 81.53519;24.57300;    -0.41822;1.00000
 81.73514;24.62300;    -0.41718;1.00000
 81.93515;24.67300;    -0.41785;1.00000
 82.13512;24.72300;    -0.41748;1.00000
 82.33526;24.77300;    -0.41849;1.00000
 82.53529;24.82300;    -0.41800;1.00000
 82.73544;24.87300;    -0.41952;1.00000
 82.93549;24.92300;    -0.41989;1.00000
 83.13557;24.97300;    -0.41832;1.00000
 83.33575;25.02300;    -0.41896;1.00000
 83.53581;25.07300;    -0.41793;1.00000
 83.73598;25.12300;    -0.41832;1.00000
 83.93608;25.17300;    -0.41850;1.00000
 84.13624;25.22300;    -0.41906;1.00000
 84.33630;25.27300;    -0.41955;1.00000
 84.53637;25.32300;    -0.41878;1.00000
 84.73637;25.37300;    -0.41905;1.00000
 84.93635;25.42300;    -0.41892;1.00000
 85.13641;25.47300;    -0.42047;1.00000
 85.33650;25.52300;    -0.41975;1.00000
 85.53669;25.57300;    -0.41979;1.00000
 85.73679;25.62300;    -0.41935;1.00000
 85.93682;25.67300;    -0.41907;1.00000
 86.13688;25.72300;    -0.41973;1.00000
 86.33698;25.77300;    -0.41968;1.00000
 86.53690;25.82300;    -0.41990;1.00000
 86.73701;25.87300;    -0.41956;1.00000
 86.93723;25.92300;    -0.41991;1.00000
 87.13729;25.97300;    -0.42018;1.00000
 87.33724;26.02300;    -0.42021;1.00000
 87.53724;26.07300;    -0.42019;1.00000
 87.73730;26.12300;    -0.42046;1.00000
 87.93743;26.17300;    -0.42001;1.00000
 88.13755;26.22300;    -0.42008;1.00000
 88.33771;26.27300;    -0.42065;1.00000
 88.53784;26.32300;    -0.41980;1.00000
 88.73785;26.37300;    -0.42186;1.00000
 88.93780;26.42300;    -0.41983;1.00000
 89.13781;26.47300;    -0.42168;1.00000
 89.33791;26.52300;    -0.42026;1.00000
 89.53800;26.57300;    -0.42037;1.00000
 89.73802;26.62300;    -0.42019;1.00000
 89.93802;26.67300;    -0.42105;1.00000
 90.13800;26.72300;    -0.42046;1.00000
 90.33791;26.77300;    -0.42109;1.00000
 90.53792;26.82300;    -0.42133;1.00000
 90.73796;26.87300;    -0.42155;1.00000
 90.93798;26.92300;    -0.42131;1.00000
 91.13806;26.97300;    -0.42125;1.00000
 91.33802;27.02300;    -0.42083;1.00000
 91.53806;27.07300;    -0.42316;1.00000
 91.73804;27.12300;    -0.42206;1.00000
 91.93804;27.17300;    -0.42152;1.00000
 92.13806;27.22300;    -0.42241;1.00000
 92.33811;27.27300;    -0.42140;1.00000
 92.53810;27.32300;    -0.42262;1.00000
 92.73820;27.37300;    -0.42195;1.00000
 92.93825;27.42300;    -0.42237;1.00000
 93.13836;27.47300;    -0.42299;1.00000
 93.33844;27.52300;    -0.42311;1.00000
 93.53853;27.57300;    -0.42215;1.00000
 93.73849;27.62300;    -0.42291;1.00000
 93.93861;27.67300;    -0.42251;1.00000
 94.13871;27.72300;    -0.42320;1.00000
 94.33873;27.77300;    -0.42364;1.00000
 94.53879;27.82300;    -0.42306;1.00000
 94.73885;27.87300;    -0.42343;1.00000
 94.93878;27.92300;    -0.42282;1.00000
 95.13882;27.97300;    -0.42334;1.00000
 95.33887;28.02300;    -0.42306;1.00000
 95.53886;28.07300;    -0.42282;1.00000
 95.73897;28.12300;    -0.42382;1.00000
 95.93904;28.17300;    -0.42356;1.00000
 96.13906;28.22300;    -0.42466;1.00000
 96.33926;28.27300;    -0.42400;1.00000
 96.53924;28.32300;    -0.42329;1.00000
 96.73910;28.37300;    -0.42362;1.00000
 96.93919;28.42300;    -0.42385;1.00000
 97.13920;28.47300;    -0.42442;1.00000
 97.33916;28.52300;    -0.42466;1.00000
 97.53914;28.57300;    -0.42447;1.00000
 97.73912;28.62300;    -0.42386;1.00000
 97.93919;28.67300;    -0.42570;1.00000
 98.13912;28.72300;    -0.42512;1.00000
 98.33906;28.77300;    -0.42438;1.00000
 98.53908;28.82300;    -0.42468;1.00000
 98.73914;28.87300;    -0.42420;1.00000
 98.93910;28.92300;    -0.42558;1.00000
 99.13914;28.97300;    -0.42524;1.00000
 99.33916;29.02300;    -0.42552;1.00000
 99.53922;29.07300;    -0.42535;1.00000
 99.73920;29.12300;    -0.42644;1.00000
 99.93909;29.17300;    -0.42532;1.00000
100.139;29.22300;    -0.42676;1.00000
100.339;29.27300;    -0.42674;1.00000
100.539;29.32300;    -0.42692;1.00000
100.739;29.37300;    -0.42558;1.00000
100.939;29.42300;    -0.42515;1.00000
101.139;29.47300;    -0.42732;1.00000
101.339;29.52300;    -0.42703;1.00000
101.539;29.57300;    -0.42737;1.00000
101.739;29.62300;    -0.42669;1.00000
101.94;29.67300;    -0.42615;1.00000
102.14;29.72300;    -0.42720;1.00000
102.34;29.77300;    -0.42613;1.00000
102.539;29.82300;    -0.42779;1.00000
102.739;29.87300;    -0.42698;1.00000
102.939;29.92300;    -0.42876;1.00000
103.139;29.97300;    -0.42810;1.00000
103.34;30.02300;    -0.42669;1.00000
103.54;30.07300;    -0.42719;1.00000
103.74;30.12300;    -0.42785;1.00000
103.94;30.17300;    -0.42898;1.00000
104.14;30.22300;    -0.42772;1.00000
104.34;30.27300;    -0.42757;1.00000
104.54;30.32300;    -0.42795;1.00000
104.74;30.37300;    -0.42794;1.00000
104.94;30.42300;    -0.42740;1.00000
105.14;30.47300;    -0.42821;1.00000
105.34;30.52300;    -0.42834;1.00000
105.54;30.57300;    -0.42850;1.00000
105.74;30.62300;    -0.42819;1.00000
105.94;30.67300;    -0.42739;1.00000
106.14;30.72300;    -0.42830;1.00000
106.34;30.77300;    -0.42823;1.00000
106.54;30.82300;    -0.42731;1.00000
106.74;30.87300;    -0.42896;1.00000
106.94;30.92300;    -0.42815;1.00000
107.14;30.97300;    -0.42765;1.00000
107.34;31.02300;    -0.42776;1.00000
107.54;31.07300;    -0.42795;1.00000
107.74;31.12300;    -0.42776;1.00000
107.94;31.17300;    -0.42861;1.00000
108.14;31.22300;    -0.42831;1.00000
108.34;31.27300;    -0.42963;1.00000
108.54;31.32300;    -0.42925;1.00000
108.74;31.37300;    -0.42979;1.00000
108.94;31.42300;    -0.42844;1.00000
109.14;31.47300;    -0.42974;1.00000
109.34;31.52300;    -0.42942;1.00000
109.54;31.57300;    -0.43007;1.00000
109.74;31.62300;    -0.42970;1.00000
109.94;31.67300;    -0.42953;1.00000
110.14;31.72300;    -0.43031;1.00000
110.34;31.77300;    -0.43094;1.00000
110.54;31.82300;    -0.42925;1.00000
110.74;31.87300;    -0.42926;1.00000
110.94;31.92300;    -0.42927;1.00000
111.14;31.97300;    -0.42971;1.00000
111.34;32.02300;    -0.42984;1.00000
111.54;32.07300;    -0.42980;1.00000
111.741;32.12300;    -0.42857;1.00000
111.941;32.17300;    -0.42907;1.00000
112.141;32.22300;    -0.43086;1.00000
112.341;32.27300;    -0.43121;1.00000
112.54;32.32300;    -0.42970;1.00000
112.74;32.37300;    -0.43028;1.00000
112.94;32.42300;    -0.42964;1.00000
113.14;32.47300;    -0.42982;1.00000
113.34;32.52300;    -0.42971;1.00000
113.54;32.57300;    -0.43042;1.00000
113.74;32.62300;    -0.43103;1.00000
113.94;32.67300;    -0.43072;1.00000
114.14;32.72300;    -0.43096;1.00000
114.34;32.77300;    -0.43019;1.00000
114.541;32.82300;    -0.43191;1.00000
114.741;32.87300;    -0.43055;1.00000
114.941;32.92300;    -0.43047;1.00000
115.141;32.97300;    -0.42992;1.00000
115.341;33.02300;    -0.43065;1.00000
115.541;33.07300;    -0.43069;1.00000
115.741;33.12300;    -0.43065;1.00000
115.941;33.17300;    -0.43039;1.00000
116.141;33.22300;    -0.42972;1.00000
116.341;33.27300;    -0.43098;1.00000
116.541;33.32300;    -0.43122;1.00000
116.741;33.37300;    -0.43093;1.00000
116.941;33.42300;    -0.43085;1.00000
117.141;33.47300;    -0.43142;1.00000
117.341;33.52300;    -0.43141;1.00000
117.541;33.57300;    -0.43073;1.00000
117.741;33.62300;    -0.43160;1.00000
117.941;33.67300;    -0.43252;1.00000
118.141;33.72300;    -0.43168;1.00000
118.341;33.77300;    -0.43214;1.00000
118.541;33.82300;    -0.43178;1.00000
118.741;33.87300;    -0.43153;1.00000
118.941;33.92300;    -0.43140;1.00000
119.141;33.97300;    -0.43056;1.00000
119.341;34.02300;    -0.43000;1.00000
119.541;34.07300;    -0.43142;1.00000
119.741;34.12300;    -0.43132;1.00000
119.942;34.17300;    -0.43081;1.00000
120.142;34.22300;    -0.43132;1.00000
120.342;34.27300;    -0.43175;1.00000
120.542;34.32300;    -0.43075;1.00000
120.742;34.37300;    -0.43158;1.00000
120.942;34.42300;    -0.43119;1.00000
121.142;34.47300;    -0.43131;1.00000
121.341;34.52300;    -0.43081;1.00000
121.541;34.57300;    -0.43159;1.00000
121.741;34.62300;    -0.43135;1.00000
121.941;34.67300;    -0.43156;1.00000
122.141;34.72300;    -0.43158;1.00000
122.341;34.77300;    -0.43178;1.00000
122.541;34.82300;    -0.43226;1.00000
122.741;34.87300;    -0.43039;1.00000
122.941;34.92300;    -0.43156;1.00000
123.141;34.97300;    -0.43030;1.00000
123.341;35.02300;    -0.43163;1.00000
123.541;35.07300;    -0.43092;1.00000
123.741;35.12300;    -0.43141;1.00000
123.941;35.17300;    -0.43143;1.00000
124.141;35.22300;    -0.43093;1.00000
124.341;35.27300;    -0.43104;1.00000
124.542;35.32300;    -0.43196;1.00000
124.742;35.37300;    -0.43057;1.00000
124.942;35.42300;    -0.42998;1.00000
125.142;35.47300;    -0.43017;1.00000
125.342;35.52300;    -0.43047;1.00000
125.542;35.57300;    -0.43074;1.00000
125.742;35.62300;    -0.43027;1.00000
125.942;35.67300;    -0.43072;1.00000
126.142;35.72300;    -0.42902;1.00000
126.342;35.77300;    -0.42795;1.00000
126.541;35.82300;    -0.42908;1.00000
126.741;35.87300;    -0.42915;1.00000
126.941;35.92300;    -0.42862;1.00000
127.141;35.97300;    -0.42888;1.00000
127.341;36.02300;    -0.42886;1.00000
127.541;36.07300;    -0.42869;1.00000
127.741;36.12300;    -0.42731;1.00000
127.941;36.17300;    -0.42774;1.00000
128.141;36.22300;    -0.42866;1.00000
128.341;36.27300;    -0.42858;1.00000
128.541;36.32300;    -0.42824;1.00000
128.741;36.37300;    -0.42717;1.00000
128.941;36.42300;    -0.42829;1.00000
129.141;36.47300;    -0.42756;1.00000
129.341;36.52300;    -0.42709;1.00000
129.541;36.57300;    -0.42716;1.00000
129.741;36.62300;    -0.42711;1.00000
129.941;36.67300;    -0.42777;1.00000
130.141;36.72300;    -0.42749;1.00000
130.341;36.77300;    -0.42683;1.00000
130.542;36.82300;    -0.42759;1.00000
130.742;36.87300;    -0.42788;1.00000
130.942;36.92300;    -0.42700;1.00000
131.142;36.97300;    -0.42482;1.00000
131.342;37.02300;    -0.42628;1.00000
131.542;37.07300;    -0.42542;1.00000
131.742;37.12300;    -0.42503;1.00000
131.941;37.17300;    -0.42421;1.00000
132.141;37.22300;    -0.42514;1.00000
132.341;37.27300;    -0.42478;1.00000
132.541;37.32300;    -0.42505;1.00000
132.741;37.37300;    -0.42476;1.00000
132.941;37.42300;    -0.42496;1.00000
133.141;37.47300;    -0.42430;1.00000
133.342;37.52300;    -0.42372;1.00000
133.542;37.57300;    -0.42578;1.00000
133.742;37.62300;    -0.42493;1.00000
133.942;37.67300;    -0.42398;1.00000
134.142;37.72300;    -0.42316;1.00000
134.342;37.77300;    -0.42343;1.00000
134.542;37.82300;    -0.42254;1.00000
134.742;37.87300;    -0.42211;1.00000
134.942;37.92300;    -0.42189;1.00000
135.142;37.97300;    -0.42224;1.00000
135.342;38.02300;    -0.42290;1.00000
135.542;38.07300;    -0.42149;1.00000
135.742;38.12300;    -0.42237;1.00000
135.942;38.17300;    -0.42036;1.00000
136.142;38.22300;    -0.42019;1.00000
136.342;38.27300;    -0.41925;1.00000
136.542;38.32300;    -0.41934;1.00000
136.742;38.37300;    -0.41990;1.00000
136.942;38.42300;    -0.41871;1.00000
137.142;38.47300;    -0.41935;1.00000
137.342;38.52300;    -0.41848;1.00000
137.542;38.57300;    -0.41880;1.00000
137.742;38.62300;    -0.41756;1.00000
137.942;38.67300;    -0.41664;1.00000
138.142;38.72300;    -0.41696;1.00000
138.342;38.77300;    -0.41651;1.00000
138.542;38.82300;    -0.41558;1.00000
138.742;38.87300;    -0.41579;1.00000
138.942;38.92300;    -0.41542;1.00000
139.142;38.97300;    -0.41423;1.00000
139.342;39.02300;    -0.41459;1.00000
139.542;39.07300;    -0.41397;1.00000
139.742;39.12300;    -0.41420;1.00000
139.942;39.17300;    -0.41314;1.00000
140.142;39.22300;    -0.41269;1.00000
140.342;39.27300;    -0.41238;1.00000
140.542;39.32300;    -0.41184;1.00000
140.742;39.37300;    -0.41184;1.00000
140.942;39.42300;    -0.41064;1.00000
141.142;39.47300;    -0.41149;1.00000
141.342;39.52300;    -0.41066;1.00000
141.542;39.57300;    -0.41017;1.00000
141.742;39.62300;    -0.40811;1.00000
141.942;39.67300;    -0.40818;1.00000
142.142;39.72300;    -0.40893;1.00000
142.342;39.77300;    -0.40815;1.00000
142.542;39.82300;    -0.40733;1.00000
142.742;39.87300;    -0.40583;1.00000
142.942;39.92300;    -0.40486;1.00000
143.142;39.97300;    -0.40501;1.00000
143.342;40.02300;    -0.40407;1.00000
143.542;40.07300;    -0.40318;1.00000
143.742;40.12300;    -0.40249;1.00000
143.942;40.17300;    -0.40259;1.00000
144.142;40.22300;    -0.40148;1.00000
144.341;40.27300;    -0.39986;1.00000
144.541;40.32300;    -0.39952;1.00000
144.741;40.37300;    -0.39678;1.00000
144.941;40.42300;    -0.39531;1.00000
145.141;40.47300;    -0.39690;1.00000
145.341;40.52300;    -0.39746;1.00000
145.541;40.57300;    -0.39595;1.00000
145.741;40.62300;    -0.39548;1.00000
145.942;40.67300;    -0.39532;1.00000
146.142;40.72300;    -0.39500;1.00000
146.342;40.77300;    -0.39261;1.00000
146.542;40.82300;    -0.39195;1.00000
146.742;40.87300;    -0.38968;1.00000
146.942;40.92300;    -0.38727;1.00000
147.142;40.97300;    -0.38811;1.00000
147.343;41.02300;    -0.38771;1.00000
147.543;41.07300;    -0.38747;1.00000
147.742;41.12300;    -0.38549;1.00000
147.943;41.17300;    -0.38457;1.00000
148.142;41.22300;    -0.38335;1.00000
148.342;41.27300;    -0.38045;1.00000
148.542;41.32300;    -0.37941;1.00000
148.742;41.37300;    -0.37960;1.00000
148.942;41.42300;    -0.37754;1.00000
149.142;41.47300;    -0.37470;1.00000
149.342;41.52300;    -0.37427;1.00000
149.542;41.57300;    -0.37256;1.00000
149.742;41.62300;    -0.37146;1.00000
149.941;41.67300;    -0.37094;1.00000
150.141;41.72300;    -0.36921;1.00000
150.341;41.77300;    -0.36883;1.00000
150.542;41.82300;    -0.36668;1.00000
150.742;41.87300;    -0.36543;1.00000
150.942;41.92300;    -0.36420;1.00000
151.142;41.97300;    -0.36202;1.00000
151.342;42.02300;    -0.35864;1.00000
151.542;42.07300;    -0.35817;1.00000
151.742;42.12300;    -0.35715;1.00000
151.942;42.17300;    -0.35517;1.00000
152.142;42.22300;    -0.35320;1.00000
152.342;42.27300;    -0.35208;1.00000
152.542;42.32300;    -0.35021;1.00000
152.743;42.37300;    -0.34707;1.00000
152.943;42.42300;    -0.34524;1.00000
153.143;42.47300;    -0.34362;1.00000
153.343;42.52300;    -0.34134;1.00000
153.543;42.57300;    -0.34076;1.00000
153.743;42.62300;    -0.33618;1.00000
153.943;42.67300;    -0.33495;1.00000
154.143;42.72300;    -0.33202;1.00000
154.343;42.77300;    -0.33036;1.00000
154.543;42.82300;    -0.32836;1.00000
154.743;42.87300;    -0.32611;1.00000
154.943;42.92300;    -0.32128;1.00000
155.143;42.97300;    -0.32077;1.00000
155.343;43.02300;    -0.31912;1.00000
155.543;43.07300;    -0.31534;1.00000
155.743;43.12300;    -0.31238;1.00000
155.943;43.17300;    -0.30950;1.00000
156.143;43.22300;    -0.30747;1.00000
156.343;43.27300;    -0.30372;1.00000
156.543;43.32300;    -0.30086;1.00000
156.743;43.37300;    -0.29869;1.00000
156.943;43.42300;    -0.29412;1.00000
157.143;43.47300;    -0.29173;1.00000
157.343;43.52300;    -0.28697;1.00000
157.543;43.57300;    -0.28402;1.00000
157.743;43.62300;    -0.28039;1.00000
157.943;43.67300;    -0.27569;1.00000
158.143;43.72300;    -0.27274;1.00000
158.343;43.77300;    -0.26879;1.00000
158.543;43.82300;    -0.26614;1.00000
158.743;43.87300;    -0.26230;1.00000
158.943;43.92300;    -0.25694;1.00000
159.143;43.97300;    -0.25255;1.00000
159.343;44.02300;    -0.24827;1.00000
159.543;44.07300;    -0.24296;1.00000
159.743;44.12300;    -0.23901;1.00000
159.943;44.17300;    -0.23483;1.00000
160.143;44.22300;    -0.23078;1.00000
160.343;44.27300;    -0.22464;1.00000
160.543;44.32300;    -0.21959;1.00000
160.743;44.37300;    -0.21447;1.00000
160.943;44.42300;    -0.20883;1.00000
161.143;44.47300;    -0.20350;1.00000
161.343;44.52300;    -0.19798;1.00000
161.543;44.57300;    -0.19294;1.00000
161.743;44.62300;    -0.18770;1.00000
161.943;44.67300;    -0.17963;1.00000
162.143;44.72300;    -0.17266;1.00000
162.344;44.77300;    -0.16762;1.00000
162.544;44.82300;    -0.16087;1.00000
162.744;44.87300;    -0.15337;1.00000
162.944;44.92300;    -0.14561;1.00000
163.144;44.97300;    -0.13892;1.00000
163.344;45.02300;    -0.13079;1.00000
163.544;45.07300;    -0.12436;1.00000
163.744;45.12300;    -0.11520;1.00000
163.944;45.17300;    -0.10821;1.00000
164.144;45.22300;-9.9716e-002;1.00000
164.344;45.27300;-9.1173e-002;1.00000
164.544;45.32300;-8.2052e-002;1.00000
164.744;45.37300;-7.2517e-002;1.00000
164.944;45.42300;-6.5251e-002;1.00000
165.145;45.47300;-5.4836e-002;1.00000
165.345;45.52300;-4.5159e-002;1.00000
165.545;45.57300;-3.4747e-002;1.00000
165.745;45.62300;-2.5767e-002;1.00000
165.945;45.67300;-1.2225e-002;1.00000
166.145;45.72300;-3.6294e-003;1.00000
166.345;45.77300; 8.4287e-003;1.00000
166.545;45.82300; 1.9819e-002;1.00000
166.745;45.87300; 3.0514e-002;1.00000
166.945;45.92300; 4.2858e-002;1.00000
167.145;45.97300; 5.7446e-002;1.00000
167.345;46.02300; 6.8230e-002;1.00000
167.545;46.07300; 8.2406e-002;1.00000
167.745;46.12300; 9.6543e-002;1.00000
167.945;46.17300;     0.10942;1.00000
168.145;46.22300;     0.12390;1.00000
168.345;46.27300;     0.13879;1.00000
168.545;46.32300;     0.15325;1.00000
168.746;46.37300;     0.16983;1.00000
168.946;46.42300;     0.18584;1.00000
169.146;46.47300;     0.20411;1.00000
169.346;46.52300;     0.22048;1.00000
169.546;46.57300;     0.23842;1.00000
169.746;46.62300;     0.25717;1.00000
169.945;46.67300;     0.27539;1.00000
170.145;46.72300;     0.29421;1.00000
170.345;46.77300;     0.31495;1.00000
170.545;46.82300;     0.33455;1.00000
170.745;46.87300;     0.35543;1.00000
170.945;46.92300;     0.37759;1.00000
171.145;46.97300;     0.39902;1.00000
171.345;47.02300;     0.42187;1.00000
171.545;47.07300;     0.44575;1.00000
171.745;47.12300;     0.46924;1.00000
171.945;47.17300;     0.49632;1.00000
172.145;47.22300;     0.52046;1.00000
172.345;47.27300;     0.54732;1.00000
172.545;47.32300;     0.57415;1.00000
172.745;47.37300;     0.60250;1.00000
172.945;47.42300;     0.63196;1.00000
173.146;47.47300;     0.66157;1.00000
173.346;47.52300;     0.69251;1.00000
173.546;47.57300;     0.72306;1.00000
173.746;47.62300;     0.75642;1.00000
173.946;47.67300;     0.78694;1.00000
174.146;47.72300;     0.82340;1.00000
174.346;47.77300;     0.85872;1.00000
174.546;47.82300;     0.89408;1.00000
174.746;47.87300;     0.93131;1.00000
174.946;47.92300;     0.96845;1.00000
175.146;47.97300;     1.00908;1.00000
175.346;48.02300;     1.05047;1.00000
175.546;48.07300;     1.09043;1.00000
175.746;48.12300;     1.13165;1.00000
175.946;48.17300;     1.17532;1.00000
176.146;48.22300;     1.21738;1.00000
176.346;48.27300;     1.26218;1.00000
176.546;48.32300;     1.30989;1.00000
176.746;48.37300;     1.35694;1.00000
176.946;48.42300;     1.40633;1.00000
177.146;48.47300;     1.45715;1.00000
177.346;48.52300;     1.51197;1.00000
177.546;48.57300;     1.56949;1.00000
177.747;48.62300;     1.63286;1.00000
177.947;48.67300;     1.69347;1.00000
178.147;48.72300;     1.76548;1.00000
178.347;48.77300;     1.83979;1.00000
178.547;48.82300;     1.91457;1.00000
178.747;48.87300;     1.99258;1.00000
178.947;48.92300;     2.07589;1.00000
179.147;48.97300;     2.15893;1.00000
179.347;49.02300;     2.24226;1.00000
179.547;49.07300;     2.32527;1.00000
179.747;49.12300;     2.40887;1.00000
179.946;49.17300;     2.49186;1.00000
180.146;49.22300;     2.57290;1.00000
180.347;49.27300;     2.65152;1.00000
180.547;49.32300;     2.72480;1.00000
180.747;49.37300;     2.79514;1.00000
180.947;49.42300;     2.86008;1.00000
181.147;49.47300;     2.92075;1.00000
181.347;49.52300;     2.97600;1.00000
181.547;49.57300;     3.02488;1.00000
181.747;49.62300;     3.06729;1.00000
181.947;49.67300;     3.10369;1.00000
182.147;49.72300;     3.12971;1.00000
182.347;49.77300;     3.15395;1.00000
182.547;49.82300;     3.16841;1.00000
182.748;49.87300;     3.17831;1.00000
182.948;49.92300;     3.17889;1.00000
183.148;49.97300;     3.17176;1.00000
183.348;50.02300;     3.15938;1.00000
183.548;50.07300;     3.14162;1.00000
183.748;50.12300;     3.12081;1.00000
183.948;50.17300;     3.09377;1.00000
184.148;50.22300;     3.05803;1.00000
184.348;50.27300;     3.01918;1.00000
184.548;50.32300;     2.97712;1.00000
184.748;50.37300;     2.93086;1.00000
184.948;50.42300;     2.88354;1.00000
185.148;50.47300;     2.83205;1.00000
185.348;50.52300;     2.77710;1.00000
185.548;50.57300;     2.72229;1.00000
185.748;50.62300;     2.66318;1.00000
185.947;50.67300;     2.60668;1.00000
186.147;50.72300;     2.54600;1.00000
186.347;50.77300;     2.48683;1.00000
186.547;50.82300;     2.42857;1.00000
186.747;50.87300;     2.36763;1.00000
186.947;50.92300;     2.30745;1.00000
187.147;50.97300;     2.24476;1.00000
187.347;51.02300;     2.18669;1.00000
187.547;51.07300;     2.12937;1.00000
187.747;51.12300;     2.07296;1.00000
187.947;51.17300;     2.01640;1.00000
188.147;51.22300;     1.96334;1.00000
188.347;51.27300;     1.90827;1.00000
188.547;51.32300;     1.85522;1.00000
188.747;51.37300;     1.80288;1.00000
188.947;51.42300;     1.75248;1.00000
189.147;51.47300;     1.70257;1.00000
189.347;51.52300;     1.65290;1.00000
189.547;51.57300;     1.60706;1.00000
189.747;51.62300;     1.56208;1.00000
189.947;51.67300;     1.51664;1.00000
190.147;51.72300;     1.47417;1.00000
190.347;51.77300;     1.42993;1.00000
190.547;51.82300;     1.39140;1.00000
190.747;51.87300;     1.35061;1.00000
190.947;51.92300;     1.31205;1.00000
191.147;51.97300;     1.27176;1.00000
191.347;52.02300;     1.23652;1.00000
191.546;52.07300;     1.20080;1.00000
191.746;52.12300;     1.16452;1.00000
191.946;52.17300;     1.13165;1.00000
192.146;52.22300;     1.09903;1.00000
192.346;52.27300;     1.06737;1.00000
192.546;52.32300;     1.03641;1.00000
192.746;52.37300;     1.00433;1.00000
192.946;52.42300;     0.97319;1.00000
193.146;52.47300;     0.94296;1.00000
193.346;52.52300;     0.91797;1.00000
193.546;52.57300;     0.88699;1.00000
193.746;52.62300;     0.86382;1.00000
193.946;52.67300;     0.83472;1.00000
194.146;52.72300;     0.80956;1.00000
194.346;52.77300;     0.78440;1.00000
194.546;52.82300;     0.76112;1.00000
194.746;52.87300;     0.73631;1.00000
194.946;52.92300;     0.71315;1.00000
195.146;52.97300;     0.69073;1.00000
195.346;53.02300;     0.66872;1.00000
195.546;53.07300;     0.64659;1.00000
195.746;53.12300;     0.62480;1.00000
195.946;53.17300;     0.60533;1.00000
196.146;53.22300;     0.58514;1.00000
196.346;53.27300;     0.56567;1.00000
196.546;53.32300;     0.54745;1.00000
196.746;53.37300;     0.52683;1.00000
196.946;53.42300;     0.50855;1.00000
197.145;53.47300;     0.49038;1.00000
197.345;53.52300;     0.47328;1.00000
197.545;53.57300;     0.45562;1.00000
197.745;53.62300;     0.44033;1.00000
197.945;53.67300;     0.42339;1.00000
198.145;53.72300;     0.40616;1.00000
198.345;53.77300;     0.38859;1.00000
198.545;53.82300;     0.37441;1.00000
198.745;53.87300;     0.36042;1.00000
198.945;53.92300;     0.34757;1.00000
199.145;53.97300;     0.33089;1.00000
199.345;54.02300;     0.31585;1.00000
199.545;54.07300;     0.30244;1.00000
199.745;54.12300;     0.28781;1.00000
199.946;54.17300;     0.27482;1.00000
200.146;54.22300;     0.26182;1.00000
200.346;54.27300;     0.24984;1.00000
200.546;54.32300;     0.23842;1.00000
200.746;54.37300;     0.22502;1.00000
200.946;54.42300;     0.21209;1.00000
201.145;54.47300;     0.20347;1.00000
201.345;54.52300;     0.19017;1.00000
201.545;54.57300;     0.17815;1.00000
201.745;54.62300;     0.16566;1.00000
201.945;54.67300;     0.15760;1.00000
202.145;54.72300;     0.14424;1.00000
202.345;54.77300;     0.13482;1.00000
202.545;54.82300;     0.12349;1.00000
202.745;54.87300;     0.11422;1.00000
202.945;54.92300;     0.10361;1.00000
203.145;54.97300; 9.3886e-002;1.00000
203.345;55.02300; 8.5443e-002;1.00000
203.545;55.07300; 7.5818e-002;1.00000
203.745;55.12300; 6.6040e-002;1.00000
203.946;55.17300; 5.5120e-002;1.00000
204.146;55.22300; 4.9736e-002;1.00000
204.346;55.27300; 4.1588e-002;1.00000
204.546;55.32300; 2.9960e-002;1.00000
204.746;55.37300; 2.4331e-002;1.00000
204.946;55.42300; 1.4119e-002;1.00000
205.146;55.47300; 6.7859e-003;1.00000
205.346;55.52300;-2.8364e-003;1.00000
205.546;55.57300;-8.7137e-003;1.00000
205.746;55.62300;-1.7604e-002;1.00000
205.946;55.67300;-2.3571e-002;1.00000
206.146;55.72300;-3.1643e-002;1.00000
206.346;55.77300;-3.8492e-002;1.00000
206.546;55.82300;-4.6378e-002;1.00000
206.746;55.87300;-5.3400e-002;1.00000
206.946;55.92300;-6.0394e-002;1.00000
207.146;55.97300;-6.8885e-002;1.00000
207.345;56.02300;-7.4842e-002;1.00000
207.545;56.07300;-8.1920e-002;1.00000
207.745;56.12300;-8.8633e-002;1.00000
207.945;56.17300;-9.6853e-002;1.00000
208.145;56.22300;    -0.10605;1.00000
208.345;56.27300;    -0.11293;1.00000
208.545;56.32300;    -0.12081;1.00000
208.745;56.37300;    -0.12935;1.00000
208.945;56.42300;    -0.13948;1.00000
209.146;56.47300;    -0.14656;1.00000
209.346;56.52300;    -0.15523;1.00000
209.546;56.57300;    -0.16204;1.00000
209.746;56.62300;    -0.16799;1.00000
209.946;56.67300;    -0.17351;1.00000
210.146;56.72300;    -0.17065;1.00000
210.346;56.77300;    -0.16282;1.00000
210.547;56.82300;    -0.15849;1.00000
210.747;56.87300;    -0.16086;1.00000
210.947;56.92300;    -0.16306;1.00000
211.147;56.97300;    -0.16193;1.00000
211.347;57.02300;    -0.16307;1.00000
211.547;57.07300;    -0.16795;1.00000
211.747;57.12300;    -0.16976;1.00000
211.948;57.17300;    -0.17332;1.00000
212.148;57.22300;    -0.17804;1.00000
212.348;57.27300;    -0.18165;1.00000
212.548;57.32300;    -0.18583;1.00000
212.748;57.37300;    -0.18879;1.00000
212.947;57.42300;    -0.19154;1.00000
213.147;57.47300;    -0.19649;1.00000
213.347;57.52300;    -0.19873;1.00000
213.547;57.57300;    -0.20258;1.00000
213.747;57.62300;    -0.20469;1.00000
213.947;57.67300;    -0.20807;1.00000
214.147;57.72300;    -0.21154;1.00000
214.347;57.77300;    -0.21366;1.00000
214.547;57.82300;    -0.21684;1.00000
214.747;57.87300;    -0.21810;1.00000
214.947;57.92300;    -0.22264;1.00000
215.147;57.97300;    -0.22482;1.00000
215.347;58.02300;    -0.22789;1.00000
215.547;58.07300;    -0.22882;1.00000
215.747;58.12300;    -0.23225;1.00000
215.947;58.17300;    -0.23567;1.00000
216.147;58.22300;    -0.23666;1.00000
216.347;58.27300;    -0.23819;1.00000
216.548;58.32300;    -0.23953;1.00000
216.748;58.37300;    -0.24221;1.00000
216.948;58.42300;    -0.24333;1.00000
217.148;58.47300;    -0.24666;1.00000
217.347;58.52300;    -0.24686;1.00000
217.547;58.57300;    -0.24921;1.00000
217.747;58.62300;    -0.25151;1.00000
217.947;58.67300;    -0.25342;1.00000
218.147;58.72300;    -0.25367;1.00000
218.347;58.77300;    -0.25493;1.00000
218.547;58.82300;    -0.25692;1.00000
218.747;58.87300;    -0.25801;1.00000
218.947;58.92300;    -0.25863;1.00000
219.147;58.97300;    -0.25920;1.00000
219.347;59.02300;    -0.26251;1.00000
219.547;59.07300;    -0.26352;1.00000
219.747;59.12300;    -0.26436;1.00000
219.947;59.17300;    -0.26451;1.00000
220.147;59.22300;    -0.26488;1.00000
220.347;59.27300;    -0.26729;1.00000
220.547;59.32300;    -0.26598;1.00000
220.747;59.37300;    -0.26600;1.00000
220.947;59.42300;    -0.26769;1.00000
221.147;59.47300;    -0.26806;1.00000
221.347;59.52300;    -0.27053;1.00000
221.547;59.57300;    -0.27160;1.00000
221.747;59.62300;    -0.27227;1.00000
221.947;59.67300;    -0.27247;1.00000
222.147;59.72300;    -0.27255;1.00000
222.348;59.77300;    -0.27264;1.00000
222.548;59.82300;    -0.27314;1.00000
222.748;59.87300;    -0.27300;1.00000
222.948;59.92300;    -0.27449;1.00000
223.147;59.97300;    -0.27235;1.00000
223.347;60.02300;    -0.27463;1.00000
223.547;60.07300;    -0.27397;1.00000
223.747;60.12300;    -0.27506;1.00000
223.947;60.17300;    -0.27437;1.00000
224.147;60.22300;    -0.27359;1.00000
224.346;60.27300;    -0.27461;1.00000
224.546;60.32300;    -0.27555;1.00000
224.746;60.37300;    -0.27450;1.00000
224.946;60.42300;    -0.27544;1.00000
225.146;60.47300;    -0.27586;1.00000
225.346;60.52300;    -0.27677;1.00000
225.547;60.57300;    -0.27657;1.00000
225.747;60.62300;    -0.27863;1.00000
225.947;60.67300;    -0.27757;1.00000
226.147;60.72300;    -0.27796;1.00000
226.347;60.77300;    -0.27693;1.00000
226.547;60.82300;    -0.27594;1.00000
226.747;60.87300;    -0.27582;1.00000
226.947;60.92300;    -0.27592;1.00000
227.147;60.97300;    -0.27686;1.00000
227.347;61.02300;    -0.27620;1.00000
227.547;61.07300;    -0.27580;1.00000
227.747;61.12300;    -0.27704;1.00000
227.947;61.17300;    -0.27516;1.00000
228.147;61.22300;    -0.27572;1.00000
228.347;61.27300;    -0.27514;1.00000
228.547;61.32300;    -0.27610;1.00000
228.747;61.37300;    -0.27525;1.00000
228.947;61.42300;    -0.27547;1.00000
229.147;61.47300;    -0.27551;1.00000
229.347;61.52300;    -0.27571;1.00000
229.547;61.57300;    -0.27581;1.00000
229.747;61.62300;    -0.27508;1.00000
229.947;61.67300;    -0.27496;1.00000
230.147;61.72300;    -0.27358;1.00000
230.347;61.77300;    -0.27534;1.00000
230.547;61.82300;    -0.27392;1.00000
230.747;61.87300;    -0.27442;1.00000
230.947;61.92300;    -0.27366;1.00000
231.147;61.97300;    -0.27387;1.00000
231.347;62.02300;    -0.27367;1.00000
231.547;62.07300;    -0.27448;1.00000
231.747;62.12300;    -0.27291;1.00000
231.947;62.17300;    -0.27369;1.00000
232.147;62.22300;    -0.27262;1.00000
232.347;62.27300;    -0.27077;1.00000
232.547;62.32300;    -0.27156;1.00000
232.747;62.37300;    -0.27352;1.00000
232.947;62.42300;    -0.27350;1.00000
233.147;62.47300;    -0.27407;1.00000
233.347;62.52300;    -0.27367;1.00000
233.547;62.57300;    -0.27237;1.00000
233.747;62.62300;    -0.27114;1.00000
233.947;62.67300;    -0.27124;1.00000
234.147;62.72300;    -0.26983;1.00000
234.347;62.77300;    -0.27150;1.00000
234.547;62.82300;    -0.27114;1.00000
234.747;62.87300;    -0.27164;1.00000
234.947;62.92300;    -0.27142;1.00000
235.147;62.97300;    -0.27275;1.00000
235.347;63.02300;    -0.27249;1.00000
235.547;63.07300;    -0.27083;1.00000
235.747;63.12300;    -0.27004;1.00000
235.948;63.17300;    -0.27199;1.00000
236.148;63.22300;    -0.27093;1.00000
236.348;63.27300;    -0.27040;1.00000
236.548;63.32300;    -0.26926;1.00000
236.748;63.37300;    -0.26935;1.00000
236.948;63.42300;    -0.27013;1.00000
237.148;63.47300;    -0.26794;1.00000
237.348;63.52300;    -0.26746;1.00000
237.548;63.57300;    -0.26846;1.00000
237.748;63.62300;    -0.26793;1.00000
237.947;63.67300;    -0.26529;1.00000
238.147;63.72300;    -0.26694;1.00000
238.347;63.77300;    -0.26777;1.00000
238.547;63.82300;    -0.26737;1.00000
238.747;63.87300;    -0.26544;1.00000
238.947;63.92300;    -0.26663;1.00000
239.147;63.97300;    -0.26655;1.00000
239.347;64.02300;    -0.26562;1.00000
239.547;64.07300;    -0.26586;1.00000
239.747;64.12300;    -0.26471;1.00000
239.947;64.17300;    -0.26573;1.00000
240.147;64.22300;    -0.26478;1.00000
240.347;64.27300;    -0.26431;1.00000
240.548;64.32300;    -0.26292;1.00000
240.748;64.37300;    -0.26505;1.00000
240.948;64.42300;    -0.26458;1.00000
241.148;64.47300;    -0.26339;1.00000
241.348;64.52300;    -0.26268;1.00000
241.548;64.57300;    -0.26173;1.00000
241.748;64.62300;    -0.26245;1.00000
241.948;64.67300;    -0.26030;1.00000
242.148;64.72300;    -0.26013;1.00000