File: src/data/kinetics/multipeaks/q10/peak_3.txt
#EXPORTTYPE:DATA SINGLE
#FTYPE:ANSI
#IDENTITY:005922
#DECIMAL:POINT
#SEPARATOR:SEMICOLON
#MTYPE:DSC
#PROJECT:
#TEMPCAL:TCALZERO.TCX
#SENSITIVITY:SENSZERO.EXX
#LABORATORY:13
#REMARK:
#SAMPLE:2
#SAMPLE MASS /mg:7.28
#REFERENCE:
#REFERENCE MASS /mg:0
#TYPE OF CRUCIBLE:DSC/TG pan Al2O3
#SAMPLE CRUCIBLE MASS /mg:0
#REFERENCE CRUCIBLE MASS /mg:0
#DSC RANGE /�V:5000
#TG RANGE /mg:5000
#TAU-R:---
#CORR. CODE:020
#EXO:+1
#RANGE:35�C/00:00/35�C/10,0(K/min)/920�C/
#SEGMENT:S1-2/2
#SEG. 1:35�C/00:15/35�C
#SEG. 2:35�C/10,0(K/min)/920�C

##Temp./�C;Time/min;DSC/(uV/mg);Sensit./(uV/mW);Segment
33.98564;0.25;3.26e-322;1.0;1
34.00776;0.5;3.4e-322;1.0;1
34.03218;0.75;3.6e-322;1.0;1
34.05276;1.0;3.75e-322;1.0;1
34.06923;1.25;3.9e-322;1.0;1
34.08182;1.5;4.0e-322;1.0;1
34.09324;1.75;4.1e-322;1.0;1
34.10847;2.0;4.25e-322;1.0;1
34.12312;2.25;4.4e-322;1.0;1
34.13618;2.5;4.5e-322;1.0;1
34.14771;2.75;4.64e-322;1.0;1
34.15324;3.0;4.7e-322;1.0;1
34.15806;3.25;4.74e-322;1.0;1
34.161;3.5;4.74e-322;1.0;1
34.16376;3.75;4.8e-322;1.0;1
34.16953;4.0;4.84e-322;1.0;1
34.177;4.25;4.94e-322;1.0;1
34.18312;4.5;5.0e-322;1.0;1
34.18659;4.75;5.04e-322;1.0;1
34.18865;5.0;5.04e-322;1.0;1
34.19218;5.25;5.1e-322;1.0;1
34.19294;5.5;5.1e-322;1.0;1
34.19318;5.75;5.1e-322;1.0;1
34.19524;6.0;5.14e-322;1.0;1
34.19906;6.25;5.2e-322;1.0;1
34.20065;6.5;5.2e-322;1.0;1
34.19976;6.75;5.2e-322;1.0;1
34.20253;7.0;5.2e-322;1.0;1
34.20388;7.25;5.24e-322;1.0;1
34.206;7.5;5.24e-322;1.0;1
34.20453;7.75;5.24e-322;1.0;1
34.20118;8.0;5.2e-322;1.0;1
34.202;8.25;5.2e-322;1.0;1
34.20176;8.5;5.2e-322;1.0;1
34.20118;8.75;5.2e-322;1.0;1
34.20347;9.0;5.24e-322;1.0;1
34.20265;9.25;5.2e-322;1.0;1
34.20318;9.5;5.24e-322;1.0;1
34.20324;9.75;5.24e-322;1.0;1
34.205;10.0;5.24e-322;1.0;1
34.20876;10.25;5.3e-322;1.0;1
34.20871;10.5;5.3e-322;1.0;1
34.20641;10.75;5.24e-322;1.0;1
34.20712;11.0;5.3e-322;1.0;1
34.20765;11.25;5.3e-322;1.0;1
34.20771;11.5;5.3e-322;1.0;1
34.20853;11.75;5.3e-322;1.0;1
34.20588;12.0;5.24e-322;1.0;1
34.20988;12.25;5.3e-322;1.0;1
34.20829;12.5;5.3e-322;1.0;1
34.20865;12.75;5.3e-322;1.0;1
34.20776;13.0;5.3e-322;1.0;1
34.20865;13.25;5.3e-322;1.0;1
34.21177;13.5;5.34e-322;1.0;1
34.21424;13.75;5.34e-322;1.0;1
34.21224;14.0;5.34e-322;1.0;1
34.21053;14.25;5.3e-322;1.0;1
34.20835;14.5;5.3e-322;1.0;1
34.209;14.75;5.3e-322;1.0;1
34.22108;15.0;5.43e-322;1.0;2
34.21049;15.25;5.3e-322;1.0;2
34.25831;15.5;5.9e-322;1.0;2
34.4492;15.75;8.84e-322;1.0;2
34.84544;16.0;2.08e-321;1.0;2
35.4671;16.25;7.925e-321;1.0;2
36.30742;16.5;4.8265e-320;1.0;2
37.34251;16.75;4.45504e-319;1.0;2
38.55148;17.0;5.947794e-318;1.0;2
39.90639;17.25;1.07983e-316;1.0;2
41.38813;17.5;2.55473e-315;1.0;2
42.97527;17.75;7.51186e-314;1.0;2
44.65488;18.0;2.66662e-312;1.0;2
46.42406;18.25;1.13418e-310;1.0;2
48.26587;18.5;5.56846e-309;1.0;2
50.19397;18.75;3.24383e-307;1.0;2
52.17875;19.0;2.10368e-305;1.0;2
54.22524;19.25;1.53325e-303;1.0;2
56.32557;19.5;1.23399e-301;1.0;2
58.4711;19.75;1.07599e-299;1.0;2
60.6614;20.0;1.01467e-297;1.0;2
62.89915;20.25;1.03958e-295;1.0;2
65.16764;20.5;1.11696e-293;1.0;2
67.4673;20.75;1.25883e-291;1.0;2
69.7915;21.0;1.46712e-289;1.0;2
72.14683;21.25;1.79113e-287;1.0;2
74.51336;21.5;2.19832e-285;1.0;2
76.90669;21.75;2.79863e-283;1.0;2
79.31675;22.0;3.61926e-281;1.0;2
81.75552;22.25;4.86841e-279;1.0;2
84.20921;22.5;6.62206e-277;1.0;2
86.67746;22.75;9.09863e-275;1.0;2
89.17272;23.0;1.29393e-272;1.0;2
91.68109;23.25;1.85182e-270;1.0;2
94.20287;23.5;2.66786e-268;1.0;2
96.73827;23.75;3.86939e-266;1.0;2
99.28467;24.0;5.61924e-264;1.0;2
101.844;24.25;8.2032e-262;1.0;2
104.41;24.5;1.18621e-259;1.0;2
106.979;24.75;1.69495e-257;1.0;2
109.553;25.0;2.38798e-255;1.0;2
112.126;25.25;3.29723e-253;1.0;2
114.701;25.5;4.47206e-251;1.0;2
117.277;25.75;5.95085e-249;1.0;2
119.853;26.0;7.75127e-247;1.0;2
122.435;26.25;1.00063e-244;1.0;2
125.02;26.5;1.27031e-242;1.0;2
127.605;26.75;1.58322e-240;1.0;2
130.201;27.0;1.96712e-238;1.0;2
132.809;27.25;2.44962e-236;1.0;2
135.416;27.5;2.97857e-234;1.0;2
138.029;27.75;3.58722e-232;1.0;2
140.645;28.0;4.25131e-230;1.0;2
143.2681;28.25;4.99646e-228;1.0;2
145.893;28.5;5.76779e-226;1.0;2
148.522;28.75;6.5518e-224;1.0;2
151.148;29.0;7.25355e-222;1.0;2
153.785;29.25;8.01681e-220;1.0;2
156.42;29.5;8.63172e-218;1.0;2
159.044;29.75;8.919e-216;1.0;2
161.667;30.0;8.99488e-214;1.0;2
164.299;30.25;9.02695e-212;1.0;2
166.9269;30.5;8.80171e-210;1.0;2
169.547;30.75;8.29085e-208;1.0;2
172.176;31.0;7.74335e-206;1.0;2
174.8;31.25;7.03114e-204;1.0;2
177.423;31.5;6.23935e-202;1.0;2
180.05;31.75;5.44776e-200;1.0;2
182.675;32.0;4.63645e-198;1.0;2
185.301;32.25;3.87658e-196;1.0;2
187.928;32.5;3.17156e-194;1.0;2
190.5591;32.75;2.55833e-192;1.0;2
193.188;33.0;2.01145e-190;1.0;2
195.817;33.25;1.5487e-188;1.0;2
198.4496;33.5;1.17267e-186;1.0;2
201.073;33.75;8.5645e-185;1.0;2
203.7;34.0;6.15465e-183;1.0;2
206.33;34.25;4.34881e-181;1.0;2
208.954;34.5;2.9771e-179;1.0;2
211.578;34.75;1.9955e-177;1.0;2
214.203;35.0;1.31199e-175;1.0;2
216.827;35.25;8.41607e-174;1.0;2
219.4497;35.5;5.27853e-172;1.0;2
222.074;35.75;3.2452e-170;1.0;2
224.6934;36.0;1.93912e-168;1.0;2
227.314;36.25;1.13615e-166;1.0;2
229.938;36.5;6.5451e-165;1.0;2
232.555;36.75;3.65271e-163;1.0;2
235.177;37.0;2.00715e-161;1.0;2
237.791;37.25;1.06827e-159;1.0;2
240.409;37.5;5.59207e-158;1.0;2
243.019;37.75;2.83396e-156;1.0;2
245.6302;38.0;1.40735e-154;1.0;2
248.239;38.25;6.81933e-153;1.0;2
250.8508;38.5;3.24706e-151;1.0;2
253.459;38.75;1.50637e-149;1.0;2
256.066;39.0;6.82185e-148;1.0;2
258.677;39.25;3.04541e-146;1.0;2
261.282;39.5;1.31745e-144;1.0;2
263.892;39.75;5.6231e-143;1.0;2
266.493;40.0;2.31988e-141;1.0;2
269.1;40.25;9.44876e-140;1.0;2
271.702;40.5;3.73924e-138;1.0;2
274.306;40.75;1.45326e-136;1.0;2
276.905;41.0;5.49655e-135;1.0;2
279.505;41.25;2.03614e-133;1.0;2
282.1045;41.5;7.37457e-132;1.0;2
284.701;41.75;2.60607e-130;1.0;2
287.296;42.0;9.00014e-129;1.0;2
289.889;42.25;3.02999e-127;1.0;2
292.484;42.5;1.00265e-125;1.0;2
295.076;42.75;3.23632e-124;1.0;2
297.662;43.0;1.01514e-122;1.0;2
300.255;43.25;3.14445e-121;1.0;2
302.844;43.5;9.48144e-120;1.0;2
305.438;43.75;2.81956e-118;1.0;2
308.025;44.0;8.13753e-117;1.0;2
310.612;44.25;2.2991e-115;1.0;2
313.198;44.5;6.35531e-114;1.0;2
315.785;44.75;1.7221e-112;1.0;2
318.367;45.0;4.53492e-111;1.0;2
320.95;45.25;1.17238e-109;1.0;2
323.53;45.5;2.95597e-108;1.0;2
326.108;45.75;7.27961e-107;1.0;2
328.684;46.0;1.75192e-105;1.0;2
331.2577;46.25;4.11977e-104;1.0;2
333.832;46.5;9.49226e-103;1.0;2
336.403;46.75;2.13302e-101;1.0;2
338.979;47.0;4.72012e-100;1.0;2
341.5496;47.25;1.01751e-98;1.0;2
344.124;47.5;2.15753e-97;1.0;2
346.695;47.75;4.46059e-96;1.0;2
349.266;48.0;9.03781e-95;1.0;2
351.833;48.25;1.78394e-93;1.0;2
354.404;48.5;3.46774e-92;1.0;2
356.966;48.75;6.53333e-91;1.0;2
359.53;49.0;1.20801e-89;1.0;2
362.093;49.25;2.18735e-88;1.0;2
364.655;49.5;3.87078e-87;1.0;2
367.218;49.75;6.72363e-86;1.0;2
369.777;50.0;1.13888e-84;1.0;2
372.336;50.25;1.88956e-83;1.0;2
374.894;50.5;3.07059e-82;1.0;2
377.455;50.75;4.89631e-81;1.0;2
380.012;51.0;7.62803e-80;1.0;2
382.5729;51.25;1.16756e-78;1.0;2
385.131;51.5;1.74685e-77;1.0;2
387.685;51.75;2.54716e-76;1.0;2
390.241;52.0;3.64997e-75;1.0;2
392.799;52.25;5.13525e-74;1.0;2
395.351;52.5;7.02546e-73;1.0;2
397.901;52.75;9.40535e-72;1.0;2
400.449;53.0;1.2321e-70;1.0;2
402.999;53.25;1.58239e-69;1.0;2
405.55;53.5;1.99465e-68;1.0;2
408.097;53.75;2.45382e-67;1.0;2
410.638;54.0;2.94162e-66;1.0;2
413.188;54.25;3.48442e-65;1.0;2
415.732;54.5;4.0211e-64;1.0;2
418.2771;54.75;4.55206e-63;1.0;2
420.819;55.0;5.03257e-62;1.0;2
423.368;55.25;5.49162e-61;1.0;2
425.911;55.5;5.83622e-60;1.0;2
428.453;55.75;6.07411e-59;1.0;2
430.995;56.0;6.19442e-58;1.0;2
433.535;56.25;6.1785e-57;1.0;2
436.074;56.5;6.03052e-56;1.0;2
438.611;56.75;5.76073e-55;1.0;2
441.145;57.0;5.3791e-54;1.0;2
443.681;57.25;4.92965e-53;1.0;2
446.2171;57.5;4.4291e-52;1.0;2
448.75;57.75;3.89003e-51;1.0;2
451.286;58.0;3.35618e-50;1.0;2
453.818;58.25;2.82717e-49;1.0;2
456.353;58.5;2.34011e-48;1.0;2
458.884;58.75;1.89281e-47;1.0;2
461.418;59.0;1.50442e-46;1.0;2
463.949;59.25;1.16823e-45;1.0;2
466.477;59.5;8.87559e-45;1.0;2
469.003;59.75;6.59844e-44;1.0;2
471.529;60.0;4.80572e-43;1.0;2
474.059;60.25;3.44157e-42;1.0;2
476.582;60.5;2.40402e-41;1.0;2
479.109;60.75;1.6504e-40;1.0;2
481.636;61.0;1.11069e-39;1.0;2
484.1589;61.25;7.30368e-39;1.0;2
486.683;61.5;4.7127e-38;1.0;2
489.207;61.75;2.97964e-37;1.0;2
491.728;62.0;1.84244e-36;1.0;2
494.248;62.25;1.1163e-35;1.0;2
496.768;62.5;6.62806e-35;1.0;2
499.294;62.75;3.87368e-34;1.0;2
501.821;63.0;2.22102e-33;1.0;2
504.348;63.25;1.24844e-32;1.0;2
506.882;63.5;6.90834e-32;1.0;2
509.414;63.75;3.74154e-31;1.0;2
511.946;64.0;1.98651e-30;1.0;2
514.481;64.25;1.03527e-29;1.0;2
517.0203;64.5;5.30381e-29;1.0;2
519.558;64.75;2.65939e-28;1.0;2
522.098;65.0;1.30905e-27;1.0;2
524.637;65.25;6.31111e-27;1.0;2
527.178;65.5;2.98331e-26;1.0;2
529.719;65.75;1.38283e-25;1.0;2
532.264;66.0;6.2937e-25;1.0;2
534.819;66.25;2.82429e-24;1.0;2
537.468;66.5;1.31037e-23;1.0;2
540.301;66.75;6.60071e-23;1.0;2
543.182;67.0;3.32989e-22;1.0;2
545.883;67.25;1.48242e-21;1.0;2
548.501;67.5;6.16816e-21;1.0;2
551.053;67.75;2.42562e-20;1.0;2
553.563;68.0;9.14126e-20;1.0;2
556.044;68.25;3.32744e-19;1.0;2
558.516;68.5;1.18257e-18;1.0;2
560.9793;68.75;4.10501e-18;1.0;2
563.435;69.0;1.39296e-17;1.0;2
565.888;69.25;4.63148e-17;1.0;2
568.34;69.5;1.51009e-16;1.0;2
570.794;69.75;4.83701e-16;1.0;2
573.249;70.0;1.52095e-15;1.0;2
575.705;70.25;4.696e-15;1.0;2
578.162;70.5;1.42303e-14;1.0;2
580.618;70.75;4.22915e-14;1.0;2
583.077;71.0;1.23485e-13;1.0;2
585.54;71.25;3.5443e-13;1.0;2
588.002;71.5;9.97769e-13;1.0;2
590.47;71.75;2.76239e-12;1.0;2
592.939;72.0;7.50678e-12;1.0;2
595.411;72.25;2.00365e-11;1.0;2
597.889;72.5;5.25686e-11;1.0;2
600.366;72.75;1.35269e-10;1.0;2
602.842;73.0;3.41384e-10;1.0;2
605.318;73.25;8.44665e-10;1.0;2
607.795;73.5;2.0514e-09;1.0;2
610.269;73.75;4.88208e-09;1.0;2
612.752;74.0;1.14333e-08;1.0;2
615.234;74.25;2.6249e-08;1.0;2
617.716;74.5;5.91195e-08;1.0;2
620.198;74.75;1.30594e-07;1.0;2
622.685;75.0;2.83382e-07;1.0;2
625.172;75.25;6.03088e-07;1.0;2
627.656;75.5;1.25781e-06;1.0;2
630.145;75.75;2.57613e-06;1.0;2
632.631;76.0;5.16992e-06;1.0;2
635.12;76.25;1.01884e-05;1.0;2
637.608;76.5;1.96805e-05;1.0;2
640.0961;76.75;3.72836e-05;1.0;2
642.586;77.0;6.93098e-05;1.0;2
645.073;77.25;0.000126282;1.0;2
647.562;77.5;0.000225729;1.0;2
650.051;77.75;0.000395746;1.0;2
652.538;78.0;0.000680154;1.0;2
655.0239;78.25;0.00114625;1.0;2
657.509;78.5;0.00189431;1.0;2
659.994;78.75;0.00307049;1.0;2
662.477;79.0;0.00487908;1.0;2
664.953;79.25;0.00759558;1.0;2
667.435;79.5;0.0116117;1.0;2
669.913;79.75;0.0173974;1.0;2
672.393;80.0;0.0255763;1.0;2
674.873;80.25;0.0368855;1.0;2
677.351;80.5;0.0521621;1.0;2
679.8299;80.75;0.0723616;1.0;2
682.307;81.0;0.098442;1.0;2
684.783;81.25;0.131363;1.0;2
687.259;81.5;0.171945;1.0;2
689.732;81.75;0.220706;1.0;2
692.207;82.0;0.277934;1.0;2
694.679;82.25;0.343272;1.0;2
697.15;82.5;0.415909;1.0;2
699.622;82.75;0.494346;1.0;2
702.093;83.0;0.576361;1.0;2
704.56;83.25;0.659136;1.0;2
707.031;83.5;0.739614;1.0;2
709.502;83.75;0.814202;1.0;2
711.974;84.0;0.879265;1.0;2
714.4421;84.25;0.931448;1.0;2
716.905;84.5;0.967968;1.0;2
719.3678;84.75;0.986932;1.0;2
721.823;85.0;0.987317;1.0;2
724.29;85.25;0.969057;1.0;2
726.768;85.5;0.932922;1.0;2
729.251;85.75;0.880887;1.0;2
731.7324;86.0;0.815832;1.0;2
734.207;86.25;0.741325;1.0;2
736.677;86.5;0.66097;1.0;2
739.14;86.75;0.578353;1.0;2
741.597;87.0;0.496722;1.0;2
744.053;87.25;0.418639;1.0;2
746.505;87.5;0.346315;1.0;2
748.954;87.75;0.281219;1.0;2
751.4;88.0;0.224137;1.0;2
753.854;88.25;0.175198;1.0;2
756.305;88.5;0.134412;1.0;2
758.766;88.75;0.101064;1.0;2
761.228;89.0;0.0745604;1.0;2
763.697;89.25;0.053919;1.0;2
766.169;89.5;0.0382304;1.0;2
768.649;89.75;0.0265619;1.0;2
771.13;90.0;0.0181012;1.0;2
773.611;90.25;0.0120979;1.0;2
776.092;90.5;0.00793089;1.0;2
778.574;90.75;0.00509868;1.0;2
781.059;91.0;0.00321288;1.0;2
783.539;91.25;0.0019879;1.0;2
786.022;91.5;0.00120576;1.0;2
788.504;91.75;0.000717444;1.0;2
790.986;92.0;0.000418716;1.0;2
793.464;92.25;0.000239934;1.0;2
795.94;92.5;0.000134915;1.0;2
798.417;92.75;7.43955e-05;1.0;2
800.887;93.0;4.03042e-05;1.0;2
803.361;93.25;2.1403e-05;1.0;2
805.8379;93.5;1.11419e-05;1.0;2
808.311;93.75;5.69483e-06;1.0;2
810.787;94.0;2.85339e-06;1.0;2
813.258;94.25;1.40402e-06;1.0;2
815.733;94.5;6.77039e-07;1.0;2
818.21;94.75;3.20105e-07;1.0;2
820.689;95.0;1.48355e-07;1.0;2
823.164;95.25;6.75172e-08;1.0;2
825.643;95.5;3.01101e-08;1.0;2
828.121;95.75;1.31735e-08;1.0;2
830.599;96.0;5.65395e-09;1.0;2
833.079;96.25;2.3791e-09;1.0;2
835.559;96.5;9.81395e-10;1.0;2
838.036;96.75;3.97689e-10;1.0;2
840.512;97.0;1.5817e-10;1.0;2
842.984;97.25;6.17831e-11;1.0;2
845.4585;97.5;2.36505e-11;1.0;2
847.935;97.75;8.87347e-12;1.0;2
850.411;98.0;3.26724e-12;1.0;2
852.884;98.25;1.18141e-12;1.0;2
855.3599;98.5;4.18576e-13;1.0;2
857.833;98.75;1.4567e-13;1.0;2
860.305;99.0;4.97322e-14;1.0;2
862.777;99.25;1.66616e-14;1.0;2
865.247;99.5;5.4819e-15;1.0;2
867.722;99.75;1.76476e-15;1.0;2
870.193;100.0;5.58444e-16;1.0;2
872.666;100.25;1.73111e-16;1.0;2
875.1419;100.5;5.25964e-17;1.0;2
877.622;100.75;1.56437e-17;1.0;2
880.098;101.0;4.57215e-18;1.0;2
882.575;101.25;1.30998e-18;1.0;2
885.052;101.5;3.68328e-19;1.0;2
887.528;101.75;1.01569e-19;1.0;2
890.004;102.0;2.74884e-20;1.0;2
892.48;102.25;7.2976e-21;1.0;2
894.956;102.5;1.90087e-21;1.0;2
897.43;102.75;4.86101e-22;1.0;2
899.902;103.0;1.22076e-22;1.0;2
902.373;103.25;3.00814e-23;1.0;2