File: src/data/kinetics/multipeaks/q10/peak_1.txt
#EXPORTTYPE:DATA SINGLE
#FTYPE:ANSI
#IDENTITY:005922
#DECIMAL:POINT
#SEPARATOR:SEMICOLON
#MTYPE:DSC
#PROJECT:
#TEMPCAL:TCALZERO.TCX
#SENSITIVITY:SENSZERO.EXX
#LABORATORY:13
#REMARK:
#SAMPLE:2
#SAMPLE MASS /mg:7.28
#REFERENCE:
#REFERENCE MASS /mg:0
#TYPE OF CRUCIBLE:DSC/TG pan Al2O3
#SAMPLE CRUCIBLE MASS /mg:0
#REFERENCE CRUCIBLE MASS /mg:0
#DSC RANGE /�V:5000
#TG RANGE /mg:5000
#TAU-R:---
#CORR. CODE:020
#EXO:+1
#RANGE:35�C/00:00/35�C/10,0(K/min)/920�C/
#SEGMENT:S1-2/2
#SEG. 1:35�C/00:15/35�C
#SEG. 2:35�C/10,0(K/min)/920�C

##Temp./�C;Time/min;DSC/(uV/mg);Sensit./(uV/mW);Segment
33.98564;0.25;2.96009e-23;1.0;1
34.00776;0.5;2.97234e-23;1.0;1
34.03218;0.75;2.98592e-23;1.0;1
34.05276;1.0;2.99741e-23;1.0;1
34.06923;1.25;3.00664e-23;1.0;1
34.08182;1.5;3.01372e-23;1.0;1
34.09324;1.75;3.02015e-23;1.0;1
34.10847;2.0;3.02874e-23;1.0;1
34.12312;2.25;3.03704e-23;1.0;1
34.13618;2.5;3.04445e-23;1.0;1
34.14771;2.75;3.05101e-23;1.0;1
34.15324;3.0;3.05416e-23;1.0;1
34.15806;3.25;3.05691e-23;1.0;1
34.161;3.5;3.05859e-23;1.0;1
34.16376;3.75;3.06016e-23;1.0;1
34.16953;4.0;3.06346e-23;1.0;1
34.177;4.25;3.06773e-23;1.0;1
34.18312;4.5;3.07124e-23;1.0;1
34.18659;4.75;3.07323e-23;1.0;1
34.18865;5.0;3.07441e-23;1.0;1
34.19218;5.25;3.07644e-23;1.0;1
34.19294;5.5;3.07687e-23;1.0;1
34.19318;5.75;3.07701e-23;1.0;1
34.19524;6.0;3.0782e-23;1.0;1
34.19906;6.25;3.08039e-23;1.0;1
34.20065;6.5;3.0813e-23;1.0;1
34.19976;6.75;3.08079e-23;1.0;1
34.20253;7.0;3.08239e-23;1.0;1
34.20388;7.25;3.08316e-23;1.0;1
34.206;7.5;3.08438e-23;1.0;1
34.20453;7.75;3.08354e-23;1.0;1
34.20118;8.0;3.08161e-23;1.0;1
34.202;8.25;3.08208e-23;1.0;1
34.20176;8.5;3.08194e-23;1.0;1
34.20118;8.75;3.08161e-23;1.0;1
34.20347;9.0;3.08293e-23;1.0;1
34.20265;9.25;3.08246e-23;1.0;1
34.20318;9.5;3.08276e-23;1.0;1
34.20324;9.75;3.08279e-23;1.0;1
34.205;10.0;3.08381e-23;1.0;1
34.20876;10.25;3.08597e-23;1.0;1
34.20871;10.5;3.08594e-23;1.0;1
34.20641;10.75;3.08462e-23;1.0;1
34.20712;11.0;3.08503e-23;1.0;1
34.20765;11.25;3.08533e-23;1.0;1
34.20771;11.5;3.08537e-23;1.0;1
34.20853;11.75;3.08584e-23;1.0;1
34.20588;12.0;3.08431e-23;1.0;1
34.20988;12.25;3.08662e-23;1.0;1
34.20829;12.5;3.0857e-23;1.0;1
34.20865;12.75;3.08591e-23;1.0;1
34.20776;13.0;3.0854e-23;1.0;1
34.20865;13.25;3.08591e-23;1.0;1
34.21177;13.5;3.08771e-23;1.0;1
34.21424;13.75;3.08913e-23;1.0;1
34.21224;14.0;3.08798e-23;1.0;1
34.21053;14.25;3.08699e-23;1.0;1
34.20835;14.5;3.08574e-23;1.0;1
34.209;14.75;3.08611e-23;1.0;1
34.22108;15.0;3.09308e-23;1.0;2
34.21049;15.25;3.08697e-23;1.0;2
34.25831;15.5;3.11464e-23;1.0;2
34.4492;15.75;3.22757e-23;1.0;2
34.84544;16.0;3.47509e-23;1.0;2
35.4671;16.25;3.90182e-23;1.0;2
36.30742;16.5;4.56217e-23;1.0;2
37.34251;16.75;5.52936e-23;1.0;2
38.55148;17.0;6.91847e-23;1.0;2
39.90639;17.25;8.88881e-23;1.0;2
41.38813;17.5;1.16832e-22;1.0;2
42.97527;17.75;1.56449e-22;1.0;2
44.65488;18.0;2.129e-22;1.0;2
46.42406;18.25;2.94222e-22;1.0;2
48.26587;18.5;4.11586e-22;1.0;2
50.19397;18.75;5.84188e-22;1.0;2
52.17875;19.0;8.3667e-22;1.0;2
54.22524;19.25;1.21007e-21;1.0;2
56.32557;19.5;1.76463e-21;1.0;2
58.4711;19.75;2.5904e-21;1.0;2
60.6614;20.0;3.82711e-21;1.0;2
62.89915;20.25;5.6929e-21;1.0;2
65.16764;20.5;8.50014e-21;1.0;2
67.4673;20.75;1.27395e-20;1.0;2
69.7915;21.0;1.91416e-20;1.0;2
72.14683;21.25;2.88654e-20;1.0;2
74.51336;21.5;4.35329e-20;1.0;2
76.90669;21.75;6.58349e-20;1.0;2
79.31675;22.0;9.96585e-20;1.0;2
81.75552;22.25;1.51309e-19;1.0;2
84.20921;22.5;2.29856e-19;1.0;2
86.67746;22.75;3.49341e-19;1.0;2
89.17272;23.0;5.32276e-19;1.0;2
91.68109;23.25;8.11111e-19;1.0;2
94.20287;23.5;1.23619e-18;1.0;2
96.73827;23.75;1.88431e-18;1.0;2
99.28467;24.0;2.87131e-18;1.0;2
101.844;24.25;4.37533e-18;1.0;2
104.41;24.5;6.65887e-18;1.0;2
106.979;24.75;1.01195e-17;1.0;2
109.553;25.0;1.53535e-17;1.0;2
112.126;25.25;2.32447e-17;1.0;2
114.701;25.5;3.51228e-17;1.0;2
117.277;25.75;5.29616e-17;1.0;2
119.853;26.0;7.96812e-17;1.0;2
122.435;26.25;1.19736e-16;1.0;2
125.02;26.5;1.7959e-16;1.0;2
127.605;26.75;2.68824e-16;1.0;2
130.201;27.0;4.02103e-16;1.0;2
132.809;27.25;6.01287e-16;1.0;2
135.416;27.5;8.96919e-16;1.0;2
138.029;27.75;1.33619e-15;1.0;2
140.645;28.0;1.98697e-15;1.0;2
143.2681;28.25;2.9512e-15;1.0;2
145.893;28.5;4.37466e-15;1.0;2
148.522;28.75;6.47282e-15;1.0;2
151.148;29.0;9.55215e-15;1.0;2
153.785;29.25;1.40873e-14;1.0;2
156.42;29.5;2.07203e-14;1.0;2
159.044;29.75;3.03579e-14;1.0;2
161.667;30.0;4.43666e-14;1.0;2
164.299;30.25;6.47803e-14;1.0;2
166.9269;30.5;9.43144e-14;1.0;2
169.547;30.75;1.36855e-13;1.0;2
172.176;31.0;1.98341e-13;1.0;2
174.8;31.25;2.8664e-13;1.0;2
177.423;31.5;4.13256e-13;1.0;2
180.05;31.75;5.94702e-13;1.0;2
182.675;32.0;8.53582e-13;1.0;2
185.301;32.25;1.22274e-12;1.0;2
187.928;32.5;1.74752e-12;1.0;2
190.5591;32.75;2.49333e-12;1.0;2
193.188;33.0;3.54814e-12;1.0;2
195.817;33.25;5.03791e-12;1.0;2
198.4496;33.5;7.13966e-12;1.0;2
201.073;33.75;1.00833e-11;1.0;2
203.7;34.0;1.42143e-11;1.0;2
206.33;34.25;1.99993e-11;1.0;2
208.954;34.5;2.80519e-11;1.0;2
211.578;34.75;3.92585e-11;1.0;2
214.203;35.0;5.48265e-11;1.0;2
216.827;35.25;7.63747e-11;1.0;2
219.4497;35.5;1.06141e-10;1.0;2
222.074;35.75;1.4719e-10;1.0;2
224.6934;36.0;2.03538e-10;1.0;2
227.314;36.25;2.80858e-10;1.0;2
229.938;36.5;3.86808e-10;1.0;2
232.555;36.75;5.31084e-10;1.0;2
235.177;37.0;7.27859e-10;1.0;2
237.791;37.25;9.94457e-10;1.0;2
240.409;37.5;1.35614e-09;1.0;2
243.019;37.75;1.84358e-09;1.0;2
245.6302;38.0;2.50078e-09;1.0;2
248.239;38.25;3.38373e-09;1.0;2
250.8508;38.5;4.56947e-09;1.0;2
253.459;38.75;6.15453e-09;1.0;2
256.066;39.0;8.26893e-09;1.0;2
258.677;39.25;1.10907e-08;1.0;2
261.282;39.5;1.48301e-08;1.0;2
263.892;39.75;1.97977e-08;1.0;2
266.493;40.0;2.6344e-08;1.0;2
269.1;40.25;3.49987e-08;1.0;2
271.702;40.5;4.63652e-08;1.0;2
274.306;40.75;6.13001e-08;1.0;2
276.905;41.0;8.08269e-08;1.0;2
279.505;41.25;1.06338e-07;1.0;2
282.1045;41.5;1.39573e-07;1.0;2
284.701;41.75;1.82739e-07;1.0;2
287.296;42.0;2.38685e-07;1.0;2
289.889;42.25;3.1096e-07;1.0;2
292.484;42.5;4.04334e-07;1.0;2
295.076;42.75;5.24424e-07;1.0;2
297.662;43.0;6.78283e-07;1.0;2
300.255;43.25;8.75882e-07;1.0;2
302.844;43.5;1.12804e-06;1.0;2
305.438;43.75;1.45032e-06;1.0;2
308.025;44.0;1.8593e-06;1.0;2
310.612;44.25;2.37827e-06;1.0;2
313.198;44.5;3.03515e-06;1.0;2
315.785;44.75;3.86515e-06;1.0;2
318.367;45.0;4.90848e-06;1.0;2
320.95;45.25;6.22077e-06;1.0;2
323.53;45.5;7.86411e-06;1.0;2
326.108;45.75;9.91769e-06;1.0;2
328.684;46.0;1.2478e-05;1.0;2
331.2577;46.25;1.5662e-05;1.0;2
333.832;46.5;1.96159e-05;1.0;2
336.403;46.75;2.45064e-05;1.0;2
338.979;47.0;3.05607e-05;1.0;2
341.5496;47.25;3.80124e-05;1.0;2
344.124;47.5;4.71913e-05;1.0;2
346.695;47.75;5.84394e-05;1.0;2
349.266;48.0;7.22124e-05;1.0;2
351.833;48.25;8.90021e-05;1.0;2
354.404;48.5;0.000109496;1.0;2
356.966;48.75;0.000134316;1.0;2
359.53;49.0;0.000164423;1.0;2
362.093;49.25;0.000200836;1.0;2
364.655;49.5;0.000244738;1.0;2
367.218;49.75;0.000297628;1.0;2
369.777;50.0;0.000361046;1.0;2
372.336;50.25;0.000437021;1.0;2
374.894;50.5;0.000527825;1.0;2
377.455;50.75;0.00063618;1.0;2
380.012;51.0;0.000764973;1.0;2
382.5729;51.25;0.000918016;1.0;2
385.131;51.5;0.00109912;1.0;2
387.685;51.75;0.00131264;1.0;2
390.241;52.0;0.00156456;1.0;2
392.799;52.25;0.00186104;1.0;2
395.351;52.5;0.00220783;1.0;2
397.901;52.75;0.00261337;1.0;2
400.449;53.0;0.00308645;1.0;2
402.999;53.25;0.00363745;1.0;2
405.55;53.5;0.00427804;1.0;2
408.097;53.75;0.0050193;1.0;2
410.638;54.0;0.00587429;1.0;2
413.188;54.25;0.00686375;1.0;2
415.732;54.5;0.00799971;1.0;2
418.2771;54.75;0.00930427;1.0;2
420.819;55.0;0.0107961;1.0;2
423.368;55.25;0.0125057;1.0;2
425.911;55.5;0.0144495;1.0;2
428.453;55.75;0.016659;1.0;2
430.995;56.0;0.0191651;1.0;2
433.535;56.25;0.0219983;1.0;2
436.074;56.5;0.0251942;1.0;2
438.611;56.75;0.0287904;1.0;2
441.145;57.0;0.0328247;1.0;2
443.681;57.25;0.0373476;1.0;2
446.2171;57.5;0.0424039;1.0;2
448.75;57.75;0.048035;1.0;2
451.286;58.0;0.054305;1.0;2
453.818;58.25;0.0612496;1.0;2
456.353;58.5;0.068945;1.0;2
458.884;58.75;0.0774294;1.0;2
461.418;59.0;0.0867851;1.0;2
463.949;59.25;0.0970475;1.0;2
466.477;59.5;0.108282;1.0;2
469.003;59.75;0.120551;1.0;2
471.529;60.0;0.133922;1.0;2
474.059;60.25;0.148485;1.0;2
476.582;60.5;0.16424;1.0;2
479.109;60.75;0.181308;1.0;2
481.636;61.0;0.199727;1.0;2
484.1589;61.25;0.219517;1.0;2
486.683;61.5;0.240769;1.0;2
489.207;61.75;0.263516;1.0;2
491.728;62.0;0.287771;1.0;2
494.248;62.25;0.313588;1.0;2
496.768;62.5;0.340997;1.0;2
499.294;62.75;0.37009;1.0;2
501.821;63.0;0.40083;1.0;2
504.348;63.25;0.433207;1.0;2
506.882;63.5;0.467296;1.0;2
509.414;63.75;0.502963;1.0;2
511.946;64.0;0.540206;1.0;2
514.481;64.25;0.579008;1.0;2
517.0203;64.5;0.61935;1.0;2
519.558;64.75;0.661051;1.0;2
522.098;65.0;0.7041;1.0;2
524.637;65.25;0.748329;1.0;2
527.178;65.5;0.79365;1.0;2
529.719;65.75;0.839931;1.0;2
532.264;66.0;0.887067;1.0;2
534.819;66.25;0.935035;1.0;2
537.468;66.5;0.985239;1.0;2
540.301;66.75;1.03923;1.0;2
543.182;67.0;1.09417;1.0;2
545.883;67.25;1.14543;1.0;2
548.501;67.5;1.19465;1.0;2
551.053;67.75;1.24193;1.0;2
553.563;68.0;1.28754;1.0;2
556.044;68.25;1.33153;1.0;2
558.516;68.5;1.37405;1.0;2
560.9793;68.75;1.41491;1.0;2
563.435;69.0;1.45393;1.0;2
565.888;69.25;1.491;1.0;2
568.34;69.5;1.52593;1.0;2
570.794;69.75;1.55859;1.0;2
573.249;70.0;1.58878;1.0;2
575.705;70.25;1.61633;1.0;2
578.162;70.5;1.64106;1.0;2
580.618;70.75;1.66283;1.0;2
583.077;71.0;1.68152;1.0;2
585.54;71.25;1.69704;1.0;2
588.002;71.5;1.70925;1.0;2
590.47;71.75;1.71809;1.0;2
592.939;72.0;1.72349;1.0;2
595.411;72.25;1.72541;1.0;2
597.889;72.5;1.72381;1.0;2
600.366;72.75;1.7187;1.0;2
602.842;73.0;1.71012;1.0;2
605.318;73.25;1.69813;1.0;2
607.795;73.5;1.68277;1.0;2
610.269;73.75;1.66418;1.0;2
612.752;74.0;1.64236;1.0;2
615.234;74.25;1.61753;1.0;2
617.716;74.5;1.5898;1.0;2
620.198;74.75;1.55935;1.0;2
622.685;75.0;1.52629;1.0;2
625.172;75.25;1.49086;1.0;2
627.656;75.5;1.45331;1.0;2
630.145;75.75;1.41372;1.0;2
632.631;76.0;1.37244;1.0;2
635.12;76.25;1.32956;1.0;2
637.608;76.5;1.28539;1.0;2
640.0961;76.75;1.24015;1.0;2
642.586;77.0;1.19399;1.0;2
645.073;77.25;1.14723;1.0;2
647.562;77.5;1.10002;1.0;2
650.051;77.75;1.05257;1.0;2
652.538;78.0;1.00514;1.0;2
655.0239;78.25;0.957887;1.0;2
657.509;78.5;0.911;1.0;2
659.994;78.75;0.864629;1.0;2
662.477;79.0;0.818983;1.0;2
664.953;79.25;0.774276;1.0;2
667.435;79.5;0.730405;1.0;2
669.913;79.75;0.687695;1.0;2
672.393;80.0;0.646128;1.0;2
674.873;80.25;0.605821;1.0;2
677.351;80.5;0.566901;1.0;2
679.8299;80.75;0.529392;1.0;2
682.307;81.0;0.493383;1.0;2
684.783;81.25;0.458892;1.0;2
687.259;81.5;0.425945;1.0;2
689.732;81.75;0.394597;1.0;2
692.207;82.0;0.364801;1.0;2
694.679;82.25;0.336594;1.0;2
697.15;82.5;0.309941;1.0;2
699.622;82.75;0.284816;1.0;2
702.093;83.0;0.261211;1.0;2
704.56;83.25;0.239101;1.0;2
707.031;83.5;0.218397;1.0;2
709.502;83.75;0.199071;1.0;2
711.974;84.0;0.181092;1.0;2
714.4421;84.25;0.164419;1.0;2
716.905;84.5;0.149011;1.0;2
719.3678;84.75;0.134779;1.0;2
721.823;85.0;0.121697;1.0;2
724.29;85.25;0.109612;1.0;2
726.768;85.5;0.0984766;1.0;2
729.251;85.75;0.0882769;1.0;2
731.7324;86.0;0.0789736;1.0;2
734.207;86.25;0.0705284;1.0;2
736.677;86.5;0.0628742;1.0;2
739.14;86.75;0.0559533;1.0;2
741.597;87.0;0.0497096;1.0;2
744.053;87.25;0.0440766;1.0;2
746.505;87.5;0.0390109;1.0;2
748.954;87.75;0.0344647;1.0;2
751.4;88.0;0.0303904;1.0;2
753.854;88.25;0.0267355;1.0;2
756.305;88.5;0.0234757;1.0;2
758.766;88.75;0.0205603;1.0;2
761.228;89.0;0.0179709;1.0;2
763.697;89.25;0.0156699;1.0;2
766.169;89.5;0.0136326;1.0;2
768.649;89.75;0.0118312;1.0;2
771.13;90.0;0.0102467;1.0;2
773.611;90.25;0.00885581;1.0;2
776.092;90.5;0.00763812;1.0;2
778.574;90.75;0.00657398;1.0;2
781.059;91.0;0.00564526;1.0;2
783.539;91.25;0.00483952;1.0;2
786.022;91.5;0.00413958;1.0;2
788.504;91.75;0.00353378;1.0;2
790.986;92.0;0.00301048;1.0;2
793.464;92.25;0.00256017;1.0;2
795.94;92.5;0.00217301;1.0;2
798.417;92.75;0.0018405;1.0;2
800.887;93.0;0.00155636;1.0;2
803.361;93.25;0.00131313;1.0;2
805.8379;93.5;0.00110547;1.0;2
808.311;93.75;0.000928971;1.0;2
810.787;94.0;0.000778929;1.0;2
813.258;94.25;0.000651975;1.0;2
815.733;94.5;0.000544469;1.0;2
818.21;94.75;0.000453713;1.0;2
820.689;95.0;0.000377251;1.0;2
823.164;95.25;0.000313117;1.0;2
825.643;95.5;0.000259293;1.0;2
828.121;95.75;0.000214291;1.0;2
830.599;96.0;0.000176741;1.0;2
833.079;96.25;0.000145458;1.0;2
835.559;96.5;0.000119452;1.0;2
838.036;96.75;9.79282e-05;1.0;2
840.512;97.0;8.01288e-05;1.0;2
842.984;97.25;6.54479e-05;1.0;2
845.4585;97.5;5.33369e-05;1.0;2
847.935;97.75;4.33708e-05;1.0;2
850.411;98.0;3.51985e-05;1.0;2
852.884;98.25;2.85145e-05;1.0;2
855.3599;98.5;2.30474e-05;1.0;2
857.833;98.75;1.85956e-05;1.0;2
860.305;99.0;1.49733e-05;1.0;2
862.777;99.25;1.20329e-05;1.0;2
865.247;99.5;9.65239e-06;1.0;2
867.722;99.75;7.72315e-06;1.0;2
870.193;100.0;6.1694e-06;1.0;2
872.666;100.25;4.91688e-06;1.0;2
875.1419;100.5;3.91004e-06;1.0;2
877.622;100.75;3.10184e-06;1.0;2
880.098;101.0;2.4565e-06;1.0;2
882.575;101.25;1.94124e-06;1.0;2
885.052;101.5;1.53105e-06;1.0;2
887.528;101.75;1.20503e-06;1.0;2
890.004;102.0;9.46599e-07;1.0;2
892.48;102.25;7.42075e-07;1.0;2
894.956;102.5;5.80581e-07;1.0;2
897.43;102.75;4.53375e-07;1.0;2
899.902;103.0;3.5339e-07;1.0;2
902.373;103.25;2.74907e-07;1.0;2