File: src/data/kinetics/multipeaks/q10/peak_2.txt
#EXPORTTYPE:DATA SINGLE
#FTYPE:ANSI
#IDENTITY:005922
#DECIMAL:POINT
#SEPARATOR:SEMICOLON
#MTYPE:DSC
#PROJECT:
#TEMPCAL:TCALZERO.TCX
#SENSITIVITY:SENSZERO.EXX
#LABORATORY:13
#REMARK:
#SAMPLE:2
#SAMPLE MASS /mg:7.28
#REFERENCE:
#REFERENCE MASS /mg:0
#TYPE OF CRUCIBLE:DSC/TG pan Al2O3
#SAMPLE CRUCIBLE MASS /mg:0
#REFERENCE CRUCIBLE MASS /mg:0
#DSC RANGE /�V:5000
#TG RANGE /mg:5000
#TAU-R:---
#CORR. CODE:020
#EXO:+1
#RANGE:35�C/00:00/35�C/10,0(K/min)/920�C/
#SEGMENT:S1-2/2
#SEG. 1:35�C/00:15/35�C
#SEG. 2:35�C/10,0(K/min)/920�C

##Temp./�C;Time/min;DSC/(uV/mg);Sensit./(uV/mW);Segment
33.98564;0.25;2.52906e-91;1.0;1
34.00776;0.5;2.5656e-91;1.0;1
34.03218;0.75;2.60654e-91;1.0;1
34.05276;1.0;2.64156e-91;1.0;1
34.06923;1.25;2.66992e-91;1.0;1
34.08182;1.5;2.6918e-91;1.0;1
34.09324;1.75;2.7118e-91;1.0;1
34.10847;2.0;2.73871e-91;1.0;1
34.12312;2.25;2.76485e-91;1.0;1
34.13618;2.5;2.78835e-91;1.0;1
34.14771;2.75;2.80927e-91;1.0;1
34.15324;3.0;2.81936e-91;1.0;1
34.15806;3.25;2.82819e-91;1.0;1
34.161;3.5;2.83358e-91;1.0;1
34.16376;3.75;2.83866e-91;1.0;1
34.16953;4.0;2.84929e-91;1.0;1
34.177;4.25;2.86313e-91;1.0;1
34.18312;4.5;2.87451e-91;1.0;1
34.18659;4.75;2.88098e-91;1.0;1
34.18865;5.0;2.88483e-91;1.0;1
34.19218;5.25;2.89144e-91;1.0;1
34.19294;5.5;2.89286e-91;1.0;1
34.19318;5.75;2.89331e-91;1.0;1
34.19524;6.0;2.89718e-91;1.0;1
34.19906;6.25;2.90436e-91;1.0;1
34.20065;6.5;2.90736e-91;1.0;1
34.19976;6.75;2.90568e-91;1.0;1
34.20253;7.0;2.9109e-91;1.0;1
34.20388;7.25;2.91345e-91;1.0;1
34.206;7.5;2.91746e-91;1.0;1
34.20453;7.75;2.91468e-91;1.0;1
34.20118;8.0;2.90836e-91;1.0;1
34.202;8.25;2.9099e-91;1.0;1
34.20176;8.5;2.90945e-91;1.0;1
34.20118;8.75;2.90836e-91;1.0;1
34.20347;9.0;2.91268e-91;1.0;1
34.20265;9.25;2.91113e-91;1.0;1
34.20318;9.5;2.91213e-91;1.0;1
34.20324;9.75;2.91224e-91;1.0;1
34.205;10.0;2.91557e-91;1.0;1
34.20876;10.25;2.92268e-91;1.0;1
34.20871;10.5;2.92259e-91;1.0;1
34.20641;10.75;2.91823e-91;1.0;1
34.20712;11.0;2.91958e-91;1.0;1
34.20765;11.25;2.92058e-91;1.0;1
34.20771;11.5;2.92069e-91;1.0;1
34.20853;11.75;2.92225e-91;1.0;1
34.20588;12.0;2.91723e-91;1.0;1
34.20988;12.25;2.9248e-91;1.0;1
34.20829;12.5;2.92179e-91;1.0;1
34.20865;12.75;2.92247e-91;1.0;1
34.20776;13.0;2.92079e-91;1.0;1
34.20865;13.25;2.92247e-91;1.0;1
34.21177;13.5;2.92839e-91;1.0;1
34.21424;13.75;2.93308e-91;1.0;1
34.21224;14.0;2.92928e-91;1.0;1
34.21053;14.25;2.92604e-91;1.0;1
34.20835;14.5;2.92191e-91;1.0;1
34.209;14.75;2.92314e-91;1.0;1
34.22108;15.0;2.94612e-91;1.0;2
34.21049;15.25;2.92596e-91;1.0;2
34.25831;15.5;3.01808e-91;1.0;2
34.4492;15.75;3.41552e-91;1.0;2
34.84544;16.0;4.41497e-91;1.0;2
35.4671;16.25;6.60202e-91;1.0;2
36.30742;16.5;1.13664e-90;1.0;2
37.34251;16.75;2.21734e-90;1.0;2
38.55148;17.0;4.8328e-90;1.0;2
39.90639;17.25;1.15519e-89;1.0;2
41.38813;17.5;2.9896e-89;1.0;2
42.97527;17.75;8.25819e-89;1.0;2
44.65488;18.0;2.41361e-88;1.0;2
46.42406;18.25;7.44652e-88;1.0;2
48.26587;18.5;2.39814e-87;1.0;2
50.19397;18.75;8.12833e-87;1.0;2
52.17875;19.0;2.84457e-86;1.0;2
54.22524;19.25;1.03072e-85;1.0;2
56.32557;19.5;3.84657e-85;1.0;2
58.4711;19.75;1.47002e-84;1.0;2
60.6614;20.0;5.74969e-84;1.0;2
62.89915;20.25;2.3048e-83;1.0;2
65.16764;20.5;9.36852e-83;1.0;2
67.4673;20.75;3.86172e-82;1.0;2
69.7915;21.0;1.60733e-81;1.0;2
72.14683;21.25;6.78136e-81;1.0;2
74.51336;21.5;2.86456e-80;1.0;2
76.90669;21.75;1.22292e-79;1.0;2
79.31675;22.0;5.24337e-79;1.0;2
81.75552;22.25;2.2739e-78;1.0;2
84.20921;22.5;9.89023e-78;1.0;2
86.67746;22.75;4.31295e-77;1.0;2
89.17272;23.0;1.89948e-76;1.0;2
91.68109;23.25;8.37787e-76;1.0;2
94.20287;23.5;3.70089e-75;1.0;2
96.73827;23.75;1.63742e-74;1.0;2
99.28467;24.0;7.24417e-74;1.0;2
101.844;24.25;3.20849e-73;1.0;2
104.41;24.5;1.41639e-72;1.0;2
106.979;24.75;6.22759e-72;1.0;2
109.553;25.0;2.7254e-71;1.0;2
112.126;25.25;1.18503e-70;1.0;2
114.701;25.5;5.12283e-70;1.0;2
117.277;25.75;2.20099e-69;1.0;2
119.853;26.0;9.39197e-69;1.0;2
122.435;26.25;3.99513e-68;1.0;2
125.02;26.5;1.69019e-67;1.0;2
127.605;26.75;7.10797e-67;1.0;2
130.201;27.0;2.98503e-66;1.0;2
132.809;27.25;1.2538e-65;1.0;2
135.416;27.5;5.22655e-65;1.0;2
138.029;27.75;2.17144e-64;1.0;2
140.645;28.0;8.97403e-64;1.0;2
143.2681;28.25;3.69769e-63;1.0;2
145.893;28.5;1.51474e-62;1.0;2
148.522;28.75;6.17226e-62;1.0;2
151.148;29.0;2.49468e-61;1.0;2
153.785;29.25;1.00726e-60;1.0;2
156.42;29.5;4.03341e-60;1.0;2
159.044;29.75;1.59469e-59;1.0;2
161.667;30.0;6.25647e-59;1.0;2
164.299;30.25;2.44975e-58;1.0;2
166.9269;30.5;9.50552e-58;1.0;2
169.547;30.75;3.6489e-57;1.0;2
172.176;31.0;1.39643e-56;1.0;2
174.8;31.25;5.29696e-56;1.0;2
177.423;31.5;1.99456e-55;1.0;2
180.05;31.75;7.47059e-55;1.0;2
182.675;32.0;2.77552e-54;1.0;2
185.301;32.25;1.02522e-53;1.0;2
187.928;32.5;3.76071e-53;1.0;2
190.5591;32.75;1.37299e-52;1.0;2
193.188;33.0;4.97212e-52;1.0;2
195.817;33.25;1.78851e-51;1.0;2
198.4496;33.5;6.39825e-51;1.0;2
201.073;33.75;2.26342e-50;1.0;2
203.7;34.0;7.96447e-50;1.0;2
206.33;34.25;2.78703e-49;1.0;2
208.954;34.5;9.65685e-49;1.0;2
211.578;34.75;3.32342e-48;1.0;2
214.203;35.0;1.13664e-47;1.0;2
216.827;35.25;3.85713e-47;1.0;2
219.4497;35.5;1.29952e-46;1.0;2
222.074;35.75;4.35012e-46;1.0;2
224.6934;36.0;1.44324e-45;1.0;2
227.314;36.25;4.75791e-45;1.0;2
229.938;36.5;1.55985e-44;1.0;2
232.555;36.75;5.06352e-44;1.0;2
235.177;37.0;1.63528e-43;1.0;2
237.791;37.25;5.22892e-43;1.0;2
240.409;37.5;1.66289e-42;1.0;2
243.019;37.75;5.23525e-42;1.0;2
245.6302;38.0;1.63747e-41;1.0;2
248.239;38.25;5.08193e-41;1.0;2
250.8508;38.5;1.5682e-40;1.0;2
253.459;38.75;4.79963e-40;1.0;2
256.066;39.0;1.45778e-39;1.0;2
258.677;39.25;4.40648e-39;1.0;2
261.282;39.5;1.31899e-38;1.0;2
263.892;39.75;3.93023e-38;1.0;2
266.493;40.0;1.15885e-37;1.0;2
269.1;40.25;3.40204e-37;1.0;2
271.702;40.5;9.89785e-37;1.0;2
274.306;40.75;2.86276e-36;1.0;2
276.905;41.0;8.20957e-36;1.0;2
279.505;41.25;2.3386e-35;1.0;2
282.1045;41.5;6.6141e-35;1.0;2
284.701;41.75;1.85613e-34;1.0;2
287.296;42.0;5.17094e-34;1.0;2
289.889;42.25;1.42903e-33;1.0;2
292.484;42.5;3.92699e-33;1.0;2
295.076;42.75;1.0707e-32;1.0;2
297.662;43.0;2.89332e-32;1.0;2
300.255;43.25;7.78495e-32;1.0;2
302.844;43.5;2.07707e-31;1.0;2
305.438;43.75;5.51587e-31;1.0;2
308.025;44.0;1.45123e-30;1.0;2
310.612;44.25;3.79228e-30;1.0;2
313.198;44.5;9.84087e-30;1.0;2
315.785;44.75;2.53733e-29;1.0;2
318.367;45.0;6.48414e-29;1.0;2
320.95;45.25;1.64711e-28;1.0;2
323.53;45.5;4.15117e-28;1.0;2
326.108;45.75;1.03844e-27;1.0;2
328.684;46.0;2.57879e-27;1.0;2
331.2577;46.25;6.35721e-27;1.0;2
333.832;46.5;1.55693e-26;1.0;2
336.403;46.75;3.78315e-26;1.0;2
338.979;47.0;9.14567e-26;1.0;2
341.5496;47.25;2.19289e-25;1.0;2
344.124;47.5;5.2294e-25;1.0;2
346.695;47.75;1.23719e-24;1.0;2
349.266;48.0;2.90807e-24;1.0;2
351.833;48.25;6.77983e-24;1.0;2
354.404;48.5;1.57258e-23;1.0;2
356.966;48.75;3.61266e-23;1.0;2
359.53;49.0;8.24891e-23;1.0;2
362.093;49.25;1.87093e-22;1.0;2
364.655;49.5;4.21272e-22;1.0;2
367.218;49.75;9.42854e-22;1.0;2
369.777;50.0;2.09363e-21;1.0;2
372.336;50.25;4.61822e-21;1.0;2
374.894;50.5;1.01195e-20;1.0;2
377.455;50.75;2.20387e-20;1.0;2
380.012;51.0;4.7645e-20;1.0;2
382.5729;51.25;1.02409e-19;1.0;2
385.131;51.5;2.18539e-19;1.0;2
387.685;51.75;4.62624e-19;1.0;2
390.241;52.0;9.73748e-19;1.0;2
392.799;52.25;2.03739e-18;1.0;2
395.351;52.5;4.22609e-18;1.0;2
397.901;52.75;8.7058e-18;1.0;2
400.449;53.0;1.78106e-17;1.0;2
402.999;53.25;3.62061e-17;1.0;2
405.55;53.5;7.31561e-17;1.0;2
408.097;53.75;1.46691e-16;1.0;2
410.638;54.0;2.91782e-16;1.0;2
413.188;54.25;5.77948e-16;1.0;2
415.732;54.5;1.13552e-15;1.0;2
418.2771;54.75;2.21721e-15;1.0;2
420.819;55.0;4.2972e-15;1.0;2
423.368;55.25;8.29092e-15;1.0;2
425.911;55.5;1.58658e-14;1.0;2
428.453;55.75;3.01593e-14;1.0;2
430.995;56.0;5.69574e-14;1.0;2
433.535;56.25;1.06814e-13;1.0;2
436.074;56.5;1.9894e-13;1.0;2
438.611;56.75;3.67997e-13;1.0;2
441.145;57.0;6.75849e-13;1.0;2
443.681;57.25;1.23373e-12;1.0;2
446.2171;57.5;2.2378e-12;1.0;2
448.75;57.75;4.03012e-12;1.0;2
451.286;58.0;7.21573e-12;1.0;2
453.818;58.25;1.28232e-11;1.0;2
456.353;58.5;2.26574e-11;1.0;2
458.884;58.75;3.97448e-11;1.0;2
461.418;59.0;6.93188e-11;1.0;2
463.949;59.25;1.2002e-10;1.0;2
466.477;59.5;2.06375e-10;1.0;2
469.003;59.75;3.52433e-10;1.0;2
471.529;60.0;5.97925e-10;1.0;2
474.059;60.25;1.00877e-09;1.0;2
476.582;60.5;1.68885e-09;1.0;2
479.109;60.75;2.8113e-09;1.0;2
481.636;61.0;4.64997e-09;1.0;2
484.1589;61.25;7.63566e-09;1.0;2
486.683;61.5;1.24618e-08;1.0;2
489.207;61.75;2.02065e-08;1.0;2
491.728;62.0;3.25359e-08;1.0;2
494.248;62.25;5.20487e-08;1.0;2
496.768;62.5;8.27274e-08;1.0;2
499.294;62.75;1.30791e-07;1.0;2
501.821;63.0;2.05502e-07;1.0;2
504.348;63.25;3.20841e-07;1.0;2
506.882;63.5;4.98263e-07;1.0;2
509.414;63.75;7.68553e-07;1.0;2
511.946;64.0;1.17791e-06;1.0;2
514.481;64.25;1.7944e-06;1.0;2
517.0203;64.5;2.71804e-06;1.0;2
519.558;64.75;4.08917e-06;1.0;2
522.098;65.0;6.11492e-06;1.0;2
524.637;65.25;9.08385e-06;1.0;2
527.178;65.5;1.34088e-05;1.0;2
529.719;65.75;1.96678e-05;1.0;2
532.264;66.0;2.86759e-05;1.0;2
534.819;66.25;4.1602e-05;1.0;2
537.468;66.5;6.07599e-05;1.0;2
540.301;66.75;9.03968e-05;1.0;2
543.182;67.0;0.000134279;1.0;2
545.883;67.25;0.000193109;1.0;2
548.501;67.5;0.000272724;1.0;2
551.053;67.75;0.000379315;1.0;2
553.563;68.0;0.000521357;1.0;2
556.044;68.25;0.000709532;1.0;2
558.516;68.5;0.00095862;1.0;2
560.9793;68.75;0.00128589;1.0;2
563.435;69.0;0.00171292;1.0;2
565.888;69.25;0.00226719;1.0;2
568.34;69.5;0.00298223;1.0;2
570.794;69.75;0.00390014;1.0;2
573.249;70.0;0.00507022;1.0;2
575.705;70.25;0.00655247;1.0;2
578.162;70.5;0.00841721;1.0;2
580.618;70.75;0.0107459;1.0;2
583.077;71.0;0.0136397;1.0;2
585.54;71.25;0.0172147;1.0;2
588.002;71.5;0.0215929;1.0;2
590.47;71.75;0.0269335;1.0;2
592.939;72.0;0.0333932;1.0;2
595.411;72.25;0.0411593;1.0;2
597.889;72.5;0.0504416;1.0;2
600.366;72.75;0.0614346;1.0;2
602.842;73.0;0.0743606;1.0;2
605.318;73.25;0.0894424;1.0;2
607.795;73.5;0.106935;1.0;2
610.269;73.75;0.127037;1.0;2
612.752;74.0;0.150081;1.0;2
615.234;74.25;0.176192;1.0;2
617.716;74.5;0.205573;1.0;2
620.198;74.75;0.238369;1.0;2
622.685;75.0;0.274764;1.0;2
625.172;75.25;0.31475;1.0;2
627.656;75.5;0.358267;1.0;2
630.145;75.75;0.405361;1.0;2
632.631;76.0;0.455727;1.0;2
635.12;76.25;0.509276;1.0;2
637.608;76.5;0.565527;1.0;2
640.0961;76.75;0.62409;1.0;2
642.586;77.0;0.684495;1.0;2
645.073;77.25;0.746008;1.0;2
647.562;77.5;0.808037;1.0;2
650.051;77.75;0.869791;1.0;2
652.538;78.0;0.930395;1.0;2
655.0239;78.25;0.989024;1.0;2
657.509;78.5;1.04481;1.0;2
659.994;78.75;1.0969;1.0;2
662.477;79.0;1.14441;1.0;2
664.953;79.25;1.18649;1.0;2
667.435;79.5;1.22263;1.0;2
669.913;79.75;1.25203;1.0;2
672.393;80.0;1.27425;1.0;2
674.873;80.25;1.28888;1.0;2
677.351;80.5;1.29561;1.0;2
679.8299;80.75;1.29436;1.0;2
682.307;81.0;1.28515;1.0;2
684.783;81.25;1.26815;1.0;2
687.259;81.5;1.24367;1.0;2
689.732;81.75;1.21221;1.0;2
692.207;82.0;1.17428;1.0;2
694.679;82.25;1.13058;1.0;2
697.15;82.5;1.08185;1.0;2
699.622;82.75;1.02886;1.0;2
702.093;83.0;0.972503;1.0;2
704.56;83.25;0.913672;1.0;2
707.031;83.5;0.853084;1.0;2
709.502;83.75;0.791603;1.0;2
711.974;84.0;0.730066;1.0;2
714.4421;84.25;0.66925;1.0;2
716.905;84.5;0.609872;1.0;2
719.3678;84.75;0.5524;1.0;2
721.823;85.0;0.497452;1.0;2
724.29;85.25;0.44503;1.0;2
726.768;85.5;0.395469;1.0;2
729.251;85.75;0.349193;1.0;2
731.7324;86.0;0.306435;1.0;2
734.207;86.25;0.267354;1.0;2
736.677;86.5;0.231897;1.0;2
739.14;86.75;0.199986;1.0;2
741.597;87.0;0.171487;1.0;2
744.053;87.25;0.14617;1.0;2
746.505;87.5;0.123868;1.0;2
748.954;87.75;0.104362;1.0;2
751.4;88.0;0.0874099;1.0;2
753.854;88.25;0.0727362;1.0;2
756.305;88.5;0.0601698;1.0;2
758.766;88.75;0.0494316;1.0;2
761.228;89.0;0.0403636;1.0;2
763.697;89.25;0.0327389;1.0;2
766.169;89.5;0.0263824;1.0;2
768.649;89.75;0.0211156;1.0;2
771.13;90.0;0.0167956;1.0;2
773.611;90.25;0.0132759;1.0;2
776.092;90.5;0.010429;1.0;2
778.574;90.75;0.0081412;1.0;2
781.059;91.0;0.00631359;1.0;2
783.539;91.25;0.00486885;1.0;2
786.022;91.5;0.00373041;1.0;2
788.504;91.75;0.00284071;1.0;2
790.986;92.0;0.00214985;1.0;2
793.464;92.25;0.00161778;1.0;2
795.94;92.5;0.00121013;1.0;2
798.417;92.75;0.0008995;1.0;2
800.887;93.0;0.000665006;1.0;2
803.361;93.25;0.000488438;1.0;2
805.8379;93.5;0.000356431;1.0;2
808.311;93.75;0.000258614;1.0;2
810.787;94.0;0.000186429;1.0;2
813.258;94.25;0.000133636;1.0;2
815.733;94.5;9.51612e-05;1.0;2
818.21;94.75;6.73321e-05;1.0;2
820.689;95.0;4.73329e-05;1.0;2
823.164;95.25;3.30855e-05;1.0;2
825.643;95.5;2.29735e-05;1.0;2
828.121;95.75;1.58548e-05;1.0;2
830.599;96.0;1.08749e-05;1.0;2
833.079;96.25;7.41161e-06;1.0;2
835.559;96.5;5.01883e-06;1.0;2
838.036;96.75;3.37981e-06;1.0;2
840.512;97.0;2.26259e-06;1.0;2
842.984;97.25;1.50614e-06;1.0;2
845.4585;97.5;9.96012e-07;1.0;2
847.935;97.75;6.5438e-07;1.0;2
850.411;98.0;4.27364e-07;1.0;2
852.884;98.25;2.77521e-07;1.0;2
855.3599;98.5;1.79022e-07;1.0;2
857.833;98.75;1.14837e-07;1.0;2
860.305;99.0;7.32126e-08;1.0;2
862.777;99.25;4.63961e-08;1.0;2
865.247;99.5;2.92347e-08;1.0;2
867.722;99.75;1.82885e-08;1.0;2
870.193;100.0;1.13801e-08;1.0;2
872.666;100.25;7.03384e-09;1.0;2
875.1419;100.5;4.31927e-09;1.0;2
877.622;100.75;2.63383e-09;1.0;2
880.098;101.0;1.59733e-09;1.0;2
882.575;101.25;9.6252e-10;1.0;2
885.052;101.5;5.76528e-10;1.0;2
887.528;101.75;3.43177e-10;1.0;2
890.004;102.0;2.0306e-10;1.0;2
892.48;102.25;1.19413e-10;1.0;2
894.956;102.5;6.97977e-11;1.0;2
897.43;102.75;4.05595e-11;1.0;2
899.902;103.0;2.34346e-11;1.0;2
902.373;103.25;1.34583e-11;1.0;2