File: src/data/kinetics/multipeaks/q5/peak_3.txt
#EXPORTTYPE:DATA SINGLE
#FILE:00592013__Al2O3_900_5_N2_20_air_20.ngb-ds1
#FTYPE:ANSI
#IDENTITY:005920
#DECIMAL:POINT
#SEPARATOR:SEMICOLON
#MTYPE:DSC
#PROJECT:
#DATE/TIME:21.07.2025 08:33
#CORR. FILE:005919_bline_Al2O3_900_5_N2_20_air_20.ngb-bs1
#TEMPCAL:TCALZERO.TCX
#SENSITIVITY:SENSZERO.EXX
#LABORATORY: 11
#OPERATOR:
#REMARK:
#SAMPLE:1
#SAMPLE MASS /mg:9.99
#MATERIAL:
#REFERENCE:
#REFERENCE MASS /mg:0
#TYPE OF CRUCIBLE:DSC/TG pan Al2O3
#SAMPLE CRUCIBLE MASS /mg:0
#REFERENCE CRUCIBLE MASS /mg:0
#DSC RANGE /V:5000
#TG RANGE /mg:5000
#TAU-R:---
#CORR. CODE:020
#EXO:+1
#RANGE:35C/00:00/35C/5,0(K/min)/920C/
#SEGMENT:S1-2/2
#SEG. 1:35C/00:15/35C
#SEG. 2:35C/5,0(K/min)/920C

##Temp./C;Time/min;DSC/(uV/mg);Sensit./(uV/mW);Segment
34.17636;0.25;3.64078e-290;1.0;1
34.17971;0.5;3.66667e-290;1.0;1
34.17888;0.75;3.66024e-290;1.0;1
34.17688;1.0;3.64479e-290;1.0;1
34.17253;1.25;3.61141e-290;1.0;1
34.17059;1.5;3.59662e-290;1.0;1
34.16876;1.75;3.58272e-290;1.0;1
34.16682;2.0;3.56805e-290;1.0;1
34.16441;2.25;3.54991e-290;1.0;1
34.16576;2.5;3.56006e-290;1.0;1
34.17024;2.75;3.59395e-290;1.0;1
34.16623;3.0;3.5636e-290;1.0;1
34.16288;3.25;3.53844e-290;1.0;1
34.16018;3.5;3.51828e-290;1.0;1
34.158;3.75;3.5021e-290;1.0;1
34.16165;4.0;3.52924e-290;1.0;1
34.16312;4.25;3.54023e-290;1.0;1
34.16582;4.5;3.56051e-290;1.0;1
34.16759;4.75;3.57386e-290;1.0;1
34.16271;5.0;3.53716e-290;1.0;1
34.15965;5.25;3.51434e-290;1.0;1
34.15641;5.5;3.49034e-290;1.0;1
34.15535;5.75;3.48252e-290;1.0;1
34.15588;6.0;3.48643e-290;1.0;1
34.15641;6.25;3.49034e-290;1.0;1
34.15753;6.5;3.49862e-290;1.0;1
34.15565;6.75;3.48473e-290;1.0;1
34.15471;7.0;3.47781e-290;1.0;1
34.15547;7.25;3.48341e-290;1.0;1
34.15894;7.5;3.50907e-290;1.0;1
34.15988;7.75;3.51605e-290;1.0;1
34.157;8.0;3.4947e-290;1.0;1
34.15382;8.25;3.47127e-290;1.0;1
34.15247;8.5;3.46137e-290;1.0;1
34.15324;8.75;3.46701e-290;1.0;1
34.15406;9.0;3.47303e-290;1.0;1
34.15082;9.25;3.44931e-290;1.0;1
34.15171;9.5;3.45581e-290;1.0;1
34.15165;9.75;3.45537e-290;1.0;1
34.15165;10.0;3.45537e-290;1.0;1
34.15094;10.25;3.45019e-290;1.0;1
34.14553;10.5;3.41093e-290;1.0;1
34.14282;10.75;3.39143e-290;1.0;1
34.14235;11.0;3.38806e-290;1.0;1
34.13906;11.25;3.36456e-290;1.0;1
34.13618;11.5;3.34413e-290;1.0;1
34.13253;11.75;3.31841e-290;1.0;1
34.12859;12.0;3.29086e-290;1.0;1
34.12518;12.25;3.26721e-290;1.0;1
34.12371;12.5;3.25707e-290;1.0;1
34.123;12.75;3.25218e-290;1.0;1
34.12447;13.0;3.26231e-290;1.0;1
34.12429;13.25;3.26107e-290;1.0;1
34.12471;13.5;3.26396e-290;1.0;1
34.12024;13.75;3.23325e-290;1.0;1
34.115;14.0;3.1976e-290;1.0;1
34.10647;14.25;3.14042e-290;1.0;1
34.10235;14.5;3.11317e-290;1.0;1
34.10264;14.75;3.11508e-290;1.0;1
34.11549;15.0;3.20092e-290;1.0;2
34.10516;15.25;3.13173e-290;1.0;2
34.13672;15.5;3.34795e-290;1.0;2
34.23371;15.75;4.11032e-290;1.0;2
34.42622;16.0;6.17559e-290;1.0;2
34.72104;16.25;1.1517e-289;1.0;2
35.12375;16.5;2.69676e-289;1.0;2
35.61708;16.75;7.64137e-289;1.0;2
36.1925;17.0;2.57229e-288;1.0;2
36.83655;17.25;9.99466e-288;1.0;2
37.54164;17.5;4.40948e-287;1.0;2
38.29774;17.75;2.16191e-286;1.0;2
39.09878;18.0;1.16256e-285;1.0;2
39.94421;18.25;6.84641e-285;1.0;2
40.82469;18.5;4.3284e-284;1.0;2
41.7454;18.75;2.96876e-283;1.0;2
42.69183;19.0;2.14238e-282;1.0;2
43.66753;19.25;1.6383e-281;1.0;2
44.66731;19.5;1.31297e-280;1.0;2
45.6928;19.75;1.10623e-279;1.0;2
46.74168;20.0;9.74902e-279;1.0;2
47.8057;20.25;8.83241e-278;1.0;2
48.88834;20.5;8.28423e-277;1.0;2
49.98967;20.75;8.04368e-276;1.0;2
51.10446;21.0;7.99688e-275;1.0;2
52.23305;21.25;8.14494e-274;1.0;2
53.37523;21.5;8.49379e-273;1.0;2
54.5253;21.75;8.96244e-272;1.0;2
55.68474;22.0;9.59701e-271;1.0;2
56.85935;22.25;1.05516e-269;1.0;2
58.04364;22.5;1.17773e-268;1.0;2
59.23476;22.75;1.32664e-267;1.0;2
60.43665;23.0;1.52009e-266;1.0;2
61.64896;23.25;1.77026e-265;1.0;2
62.86358;23.5;2.06103e-264;1.0;2
64.0847;23.75;2.41918e-263;1.0;2
65.30787;24.0;2.83706e-262;1.0;2
66.53528;24.25;3.33873e-261;1.0;2
67.76738;24.5;3.94617e-260;1.0;2
69.00398;24.75;4.68233e-259;1.0;2
70.24448;25.0;5.57051e-258;1.0;2
71.48621;25.25;6.60917e-257;1.0;2
72.72937;25.5;7.82318e-256;1.0;2
73.97395;25.75;9.23822e-255;1.0;2
75.22398;26.0;1.09702e-253;1.0;2
76.46965;26.25;1.28477e-252;1.0;2
77.71669;26.5;1.50088e-251;1.0;2
78.96561;26.75;1.75066e-250;1.0;2
80.21691;27.0;2.04084e-249;1.0;2
81.47146;27.25;2.38174e-248;1.0;2
82.72618;27.5;2.76585e-247;1.0;2
83.9838;27.75;3.21308e-246;1.0;2
85.24469;28.0;3.73652e-245;1.0;2
86.50762;28.25;4.33923e-244;1.0;2
87.77336;28.5;5.03957e-243;1.0;2
89.03755;28.75;5.80415e-242;1.0;2
90.30329;29.0;6.66884e-241;1.0;2
91.5698;29.25;7.63251e-240;1.0;2
92.84121;29.5;8.77058e-239;1.0;2
94.11325;29.75;1.00359e-237;1.0;2
95.38379;30.0;1.13888e-236;1.0;2
96.65528;30.25;1.28775e-235;1.0;2
97.92917;30.5;1.45483e-234;1.0;2
99.20502;30.75;1.64073e-233;1.0;2
100.482;31.0;1.8438e-232;1.0;2
101.761;31.25;2.06968e-231;1.0;2
103.0401;31.5;2.31013e-230;1.0;2
104.318;31.75;2.55879e-229;1.0;2
105.595;32.0;2.81312e-228;1.0;2
106.873;32.25;3.08195e-227;1.0;2
108.15;32.5;3.35149e-226;1.0;2
109.424;32.75;3.60814e-225;1.0;2
110.698;33.0;3.86202e-224;1.0;2
111.973;33.25;4.11297e-223;1.0;2
113.248;33.5;4.36043e-222;1.0;2
114.5243;33.75;4.6118e-221;1.0;2
115.8;34.0;4.84212e-220;1.0;2
117.071;34.25;5.01066e-219;1.0;2
118.344;34.5;5.18536e-218;1.0;2
119.615;34.75;5.3111e-217;1.0;2
120.886;35.0;5.41205e-216;1.0;2
122.16;35.25;5.51168e-215;1.0;2
123.434;35.5;5.58468e-214;1.0;2
124.708;35.75;5.62482e-213;1.0;2
125.984;36.0;5.661e-212;1.0;2
127.259;36.25;5.64625e-211;1.0;2
128.536;36.5;5.62909e-210;1.0;2
129.815;36.75;5.60228e-209;1.0;2
131.096;37.0;5.55638e-208;1.0;2
132.375;37.25;5.47453e-207;1.0;2
133.6561;37.5;5.37329e-206;1.0;2
134.935;37.75;5.22478e-205;1.0;2
136.213;38.0;5.04861e-204;1.0;2
137.494;38.25;4.87699e-203;1.0;2
138.773;38.5;4.67137e-202;1.0;2
140.055;38.75;4.46597e-201;1.0;2
141.336;39.0;4.24627e-200;1.0;2
142.619;39.25;4.02377e-199;1.0;2
143.902;39.5;3.7959e-198;1.0;2
145.189;39.75;3.58841e-197;1.0;2
146.477;40.0;3.37418e-196;1.0;2
147.764;40.25;3.14972e-195;1.0;2
149.052;40.5;2.93102e-194;1.0;2
150.3408;40.75;2.71493e-193;1.0;2
151.63;41.0;2.50169e-192;1.0;2
152.914;41.25;2.27521e-191;1.0;2
154.201;41.5;2.06725e-190;1.0;2
155.491;41.75;1.87402e-189;1.0;2
156.779;42.0;1.68658e-188;1.0;2
158.066;42.25;1.50604e-187;1.0;2
159.352;42.5;1.33629e-186;1.0;2
160.638;42.75;1.17764e-185;1.0;2
161.923;43.0;1.03245e-184;1.0;2
163.2086;43.25;8.99184e-184;1.0;2
164.4928;43.5;7.77493e-183;1.0;2
165.782;43.75;6.73657e-182;1.0;2
167.069;44.0;5.79551e-181;1.0;2
168.35;44.25;4.89744e-180;1.0;2
169.63;44.5;4.1152e-179;1.0;2
170.916;44.75;3.46826e-178;1.0;2
172.2;45.0;2.90076e-177;1.0;2
173.484;45.25;2.41335e-176;1.0;2
174.772;45.5;2.00768e-175;1.0;2
176.055;45.75;1.6502e-174;1.0;2
177.339;46.0;1.34936e-173;1.0;2
178.6242;46.25;1.09893e-172;1.0;2
179.907;46.5;8.8762e-172;1.0;2
181.188;46.75;7.10369e-171;1.0;2
182.47;47.0;5.66177e-170;1.0;2
183.751;47.25;4.48149e-169;1.0;2
185.034;47.5;3.54124e-168;1.0;2
186.318;47.75;2.78412e-167;1.0;2
187.6;48.0;2.17137e-166;1.0;2
188.884;48.25;1.68925e-165;1.0;2
190.169;48.5;1.31025e-164;1.0;2
191.455;48.75;1.01153e-163;1.0;2
192.741;49.0;7.75863e-163;1.0;2
194.027;49.25;5.92884e-162;1.0;2
195.314;49.5;4.50277e-161;1.0;2
196.596;49.75;3.38119e-160;1.0;2
197.878;50.0;2.52349e-159;1.0;2
199.164;50.25;1.88358e-158;1.0;2
200.448;50.5;1.3935e-157;1.0;2
201.731;50.75;1.02539e-156;1.0;2
203.018;51.0;7.53559e-156;1.0;2
204.303;51.25;5.50015e-155;1.0;2
205.589;51.5;3.99333e-154;1.0;2
206.875;51.75;2.88451e-153;1.0;2
208.16;52.0;2.06712e-152;1.0;2
209.443;52.25;1.47092e-151;1.0;2
210.727;52.5;1.04062e-150;1.0;2
212.011;52.75;7.32927e-150;1.0;2
213.2936;53.0;5.12315e-149;1.0;2
214.5738;53.25;3.54783e-148;1.0;2
215.857;53.5;2.45421e-147;1.0;2
217.1376;53.75;1.68212e-146;1.0;2
218.417;54.0;1.1443e-145;1.0;2
219.696;54.25;7.74009e-145;1.0;2
220.974;54.5;5.19829e-144;1.0;2
222.254;54.75;3.47927e-143;1.0;2
223.532;55.0;2.31304e-142;1.0;2
224.81;55.25;1.52754e-141;1.0;2
226.091;55.5;1.00703e-140;1.0;2
227.368;55.75;6.57751e-140;1.0;2
228.648;56.0;4.2816e-139;1.0;2
229.928;56.25;2.77577e-138;1.0;2
231.206;56.5;1.7852e-137;1.0;2
232.486;56.75;1.14296e-136;1.0;2
233.765;57.0;7.28281e-136;1.0;2
235.045;57.25;4.61354e-135;1.0;2
236.323;57.5;2.90174e-134;1.0;2
237.601;57.75;1.81328e-133;1.0;2
238.878;58.0;1.12616e-132;1.0;2
240.155;58.25;6.96007e-132;1.0;2
241.433;58.5;4.28208e-131;1.0;2
242.71;58.75;2.61489e-130;1.0;2
243.985;59.0;1.58453e-129;1.0;2
245.262;59.25;9.56863e-129;1.0;2
246.539;59.5;5.74586e-128;1.0;2
247.816;59.75;3.43519e-127;1.0;2
249.096;60.0;2.05045e-126;1.0;2
250.374;60.25;1.21387e-125;1.0;2
251.654;60.5;7.1653e-125;1.0;2
252.931;60.75;4.18766e-124;1.0;2
254.205;61.0;2.42617e-123;1.0;2
255.482;61.25;1.40225e-122;1.0;2
256.759;61.5;8.06981e-122;1.0;2
258.036;61.75;4.61141e-121;1.0;2
259.311;62.0;2.61593e-120;1.0;2
260.5913;62.25;1.4874e-119;1.0;2
261.867;62.5;8.35684e-119;1.0;2
263.142;62.75;4.6628e-118;1.0;2
264.4204;63.0;2.59965e-117;1.0;2
265.7;63.25;1.44322e-116;1.0;2
266.978;63.5;7.95622e-116;1.0;2
268.256;63.75;4.36362e-115;1.0;2
269.535;64.0;2.38286e-114;1.0;2
270.812;64.25;1.28967e-113;1.0;2
272.086;64.5;6.91861e-113;1.0;2
273.359;64.75;3.68695e-112;1.0;2
274.632;65.0;1.95269e-111;1.0;2
275.906;65.25;1.03086e-110;1.0;2
277.181;65.5;5.41821e-110;1.0;2
278.456;65.75;2.83007e-109;1.0;2
279.729;66.0;1.46796e-108;1.0;2
281.006;66.25;7.60772e-108;1.0;2
282.284;66.5;3.92813e-107;1.0;2
283.56;66.75;2.00988e-106;1.0;2
284.836;67.0;1.02399e-105;1.0;2
286.111;67.25;5.18051e-105;1.0;2
287.388;67.5;2.61115e-104;1.0;2
288.666;67.75;1.31115e-103;1.0;2
289.94;68.0;6.5187e-103;1.0;2
291.213;68.25;3.21697e-102;1.0;2
292.485;68.5;1.57764e-101;1.0;2
293.757;68.75;7.69346e-101;1.0;2
295.031;69.0;3.74172e-100;1.0;2
296.307;69.25;1.81484e-99;1.0;2
297.582;69.5;8.7364e-99;1.0;2
298.8559;69.75;4.17859e-98;1.0;2
300.129;70.0;1.98593e-97;1.0;2
301.402;70.25;9.38336e-97;1.0;2
302.675;70.5;4.41138e-96;1.0;2
303.947;70.75;2.05982e-95;1.0;2
305.218;71.0;9.55409e-95;1.0;2
306.486;71.25;4.39409e-94;1.0;2
307.755;71.5;2.0109e-93;1.0;2
309.028;71.75;9.19553e-93;1.0;2
310.299;72.0;4.17125e-92;1.0;2
311.568;72.25;1.87892e-91;1.0;2
312.838;72.5;8.42459e-91;1.0;2
314.107;72.75;3.75459e-90;1.0;2
315.373;73.0;1.65817e-89;1.0;2
316.642;73.25;7.3079e-89;1.0;2
317.912;73.5;3.2071e-88;1.0;2
319.1809;73.75;1.39813e-87;1.0;2
320.449;74.0;6.05691e-87;1.0;2
321.7193;74.25;2.61601e-86;1.0;2
322.988;74.5;1.12163e-85;1.0;2
324.258;74.75;4.79153e-85;1.0;2
325.526;75.0;2.0316e-84;1.0;2
326.7946;75.25;8.56835e-84;1.0;2
328.063;75.5;3.59462e-83;1.0;2
329.332;75.75;1.50053e-82;1.0;2
330.599;76.0;6.21945e-82;1.0;2
331.868;76.25;2.56715e-81;1.0;2
333.139;76.5;1.05788e-80;1.0;2
334.409;76.75;4.32578e-80;1.0;2
335.672;77.0;1.74713e-79;1.0;2
336.935;77.25;7.01552e-79;1.0;2
338.201;77.5;2.8085e-78;1.0;2
339.467;77.75;1.11984e-77;1.0;2
340.734;78.0;4.44587e-77;1.0;2
342.001;78.25;1.75464e-76;1.0;2
343.267;78.5;6.8809e-76;1.0;2
344.533;78.75;2.68355e-75;1.0;2
345.801;79.0;1.04315e-74;1.0;2
347.068;79.25;4.03043e-74;1.0;2
348.3319;79.5;1.54377e-73;1.0;2
349.596;79.75;5.88421e-73;1.0;2
350.862;80.0;2.23314e-72;1.0;2
352.1271;80.25;8.42727e-72;1.0;2
353.392;80.5;3.16119e-71;1.0;2
354.658;80.75;1.18126e-70;1.0;2
355.923;81.0;4.38663e-70;1.0;2
357.19;81.25;1.62235e-69;1.0;2
358.457;81.5;5.97166e-69;1.0;2
359.7225;81.75;2.18321e-68;1.0;2
360.985;82.0;7.91486e-68;1.0;2
362.2481;82.25;2.85413e-67;1.0;2
363.513;82.5;1.02626e-66;1.0;2
364.776;82.75;3.66185e-66;1.0;2
366.039;83.0;1.29968e-65;1.0;2
367.303;83.25;4.59171e-65;1.0;2
368.565;83.5;1.61034e-64;1.0;2
369.826;83.75;5.61355e-64;1.0;2
371.086;84.0;1.94536e-63;1.0;2
372.3491;84.25;6.71992e-63;1.0;2
373.6113;84.5;2.30785e-62;1.0;2
374.87;84.75;7.8599e-62;1.0;2
376.134;85.0;2.67501e-61;1.0;2
377.3972;85.25;9.04705e-61;1.0;2
378.66;85.5;3.04293e-60;1.0;2
379.921;85.75;1.01618e-59;1.0;2
381.179;86.0;3.36688e-59;1.0;2
382.438;86.25;1.11065e-58;1.0;2
383.7;86.5;3.65176e-58;1.0;2
384.959;86.75;1.19163e-57;1.0;2
386.2178;87.0;3.86884e-57;1.0;2
387.478;87.25;1.251e-56;1.0;2
388.738;87.5;4.0198e-56;1.0;2
389.998;87.75;1.28539e-55;1.0;2
391.254;88.0;4.0742e-55;1.0;2
392.51;88.25;1.28388e-54;1.0;2
393.773;88.5;4.0508e-54;1.0;2
395.0354;88.75;1.27061e-53;1.0;2
396.297;89.0;3.96194e-53;1.0;2
397.556;89.25;1.22616e-52;1.0;2
398.817;89.5;3.77916e-52;1.0;2
400.079;89.75;1.15974e-51;1.0;2
401.34;90.0;3.53722e-51;1.0;2
402.599;90.25;1.07123e-50;1.0;2
403.858;90.5;3.22924e-50;1.0;2
405.119;90.75;9.69347e-50;1.0;2
406.379;91.0;2.89112e-49;1.0;2
407.638;91.25;8.57314e-49;1.0;2
408.901;91.5;2.53728e-48;1.0;2
410.16;91.75;7.44038e-48;1.0;2
411.418;92.0;2.16916e-47;1.0;2
412.676;92.25;6.29142e-47;1.0;2
413.935;92.5;1.81636e-46;1.0;2
415.192;92.75;5.2049e-46;1.0;2
416.4495;93.0;1.48534e-45;1.0;2
417.706;93.25;4.21196e-45;1.0;2
418.9638;93.5;1.18912e-44;1.0;2
420.221;93.75;3.33867e-44;1.0;2
421.478;94.0;9.31771e-44;1.0;2
422.7334;94.25;2.58456e-43;1.0;2
423.99;94.5;7.13622e-43;1.0;2
425.248;94.75;1.96264e-42;1.0;2
426.506;95.0;5.36961e-42;1.0;2
427.762;95.25;1.4589e-41;1.0;2
429.019;95.5;3.94426e-41;1.0;2
430.275;95.75;1.0599e-40;1.0;2
431.534;96.0;2.8422e-40;1.0;2
432.795;96.25;7.58824e-40;1.0;2
434.053;96.5;2.01046e-39;1.0;2
435.313;96.75;5.30352e-39;1.0;2
436.573;97.0;1.39313e-38;1.0;2
437.835;97.25;3.64374e-38;1.0;2
439.093;97.5;9.44698e-38;1.0;2
440.3477;97.75;2.43172e-37;1.0;2
441.604;98.0;6.23436e-37;1.0;2
442.859;98.25;1.58728e-36;1.0;2
444.117;98.5;4.03209e-36;1.0;2
445.377;98.75;1.01953e-35;1.0;2
446.638;99.0;2.56682e-35;1.0;2
447.8979;99.25;6.42489e-35;1.0;2
449.159;99.5;1.60083e-34;1.0;2
450.419;99.75;3.9633e-34;1.0;2
451.676;100.0;9.7434e-34;1.0;2
452.933;100.25;2.38215e-33;1.0;2
454.189;100.5;5.78693e-33;1.0;2
455.4418;100.75;1.39562e-32;1.0;2
456.696;101.0;3.35208e-32;1.0;2
457.9502;101.25;8.00601e-32;1.0;2
459.202;101.5;1.89908e-31;1.0;2
460.455;101.75;4.48677e-31;1.0;2
461.713;102.0;1.05736e-30;1.0;2
462.968;102.25;2.47433e-30;1.0;2
464.222;102.5;5.75536e-30;1.0;2
465.4741;102.75;1.33025e-29;1.0;2
466.727;103.0;3.05993e-29;1.0;2
467.98;103.25;7.0006e-29;1.0;2
469.233;103.5;1.59309e-28;1.0;2
470.486;103.75;3.60821e-28;1.0;2
471.739;104.0;8.12551e-28;1.0;2
472.992;104.25;1.82042e-27;1.0;2
474.243;104.5;4.05281e-27;1.0;2
475.4947;104.75;8.97633e-27;1.0;2
476.747;105.0;1.97845e-26;1.0;2
477.9978;105.25;4.33464e-26;1.0;2
479.249;105.5;9.4475e-26;1.0;2
480.501;105.75;2.05007e-25;1.0;2
481.753;106.0;4.42346e-25;1.0;2
483.006;106.25;9.49843e-25;1.0;2
484.256;106.5;2.02683e-24;1.0;2
485.507;106.75;4.30194e-24;1.0;2
486.76;107.0;9.09771e-24;1.0;2
488.013;107.25;1.91309e-23;1.0;2
489.266;107.5;4.00209e-23;1.0;2
490.52;107.75;8.33385e-23;1.0;2
491.772;108.0;1.72444e-22;1.0;2
493.024;108.25;3.54849e-22;1.0;2
494.278;108.5;7.27225e-22;1.0;2
495.531;108.75;1.48183e-21;1.0;2
496.782;109.0;3.00045e-21;1.0;2
498.034;109.25;6.04945e-21;1.0;2
499.287;109.5;1.21325e-20;1.0;2
500.541;109.75;2.42185e-20;1.0;2
501.7957;110.0;4.81073e-20;1.0;2
503.048;110.25;9.49595e-20;1.0;2
504.301;110.5;1.86433e-19;1.0;2
505.554;110.75;3.64153e-19;1.0;2
506.804;111.0;7.06797e-19;1.0;2
508.055;111.25;1.36447e-18;1.0;2
509.307;111.5;2.62288e-18;1.0;2
510.562;111.75;5.02118e-18;1.0;2
511.798;112.0;9.47214e-18;1.0;2
513.034;112.25;1.77783e-17;1.0;2
514.314;112.5;3.39435e-17;1.0;2
515.603;112.75;6.47032e-17;1.0;2
516.891;113.0;1.22664e-16;1.0;2
518.177;113.25;2.30949e-16;1.0;2
519.459;113.5;4.31726e-16;1.0;2
520.74;113.75;8.01896e-16;1.0;2
522.021;114.0;1.4817e-15;1.0;2
523.318;114.25;2.74317e-15;1.0;2
524.658;114.5;5.15269e-15;1.0;2
526.025;114.75;9.74017e-15;1.0;2
527.4373;115.0;1.8682e-14;1.0;2
528.914;115.25;3.66572e-14;1.0;2
530.34;115.5;6.97857e-14;1.0;2
531.691;115.75;1.27633e-13;1.0;2
533;116.0;2.27689e-13;1.0;2
534.277;116.25;3.98341e-13;1.0;2
535.532;116.5;6.86512e-13;1.0;2
536.77;116.75;1.16856e-12;1.0;2
537.996;117.0;1.96902e-12;1.0;2
539.218;117.25;3.29505e-12;1.0;2
540.437;117.5;5.47914e-12;1.0;2
541.654;117.75;9.05922e-12;1.0;2
542.871;118.0;1.49031e-11;1.0;2
544.086;118.25;2.43766e-11;1.0;2
545.2994;118.5;3.96534e-11;1.0;2
546.514;118.75;6.42127e-11;1.0;2
547.731;119.0;1.03552e-10;1.0;2
548.947;119.25;1.66148e-10;1.0;2
550.163;119.5;2.65184e-10;1.0;2
551.381;119.75;4.215e-10;1.0;2
552.601;120.0;6.67162e-10;1.0;2
553.823;120.25;1.05154e-09;1.0;2
555.046;120.5;1.64974e-09;1.0;2
556.2706;120.75;2.57647e-09;1.0;2
557.497;121.0;4.00646e-09;1.0;2
558.723;121.25;6.19721e-09;1.0;2
559.947;121.5;9.53299e-09;1.0;2
561.172;121.75;1.45927e-08;1.0;2
562.398;122.0;2.22335e-08;1.0;2
563.624;122.25;3.37098e-08;1.0;2
564.8499;122.5;5.0846e-08;1.0;2
566.077;122.75;7.63426e-08;1.0;2
567.305;123.0;1.1405e-07;1.0;2
568.536;123.25;1.69717e-07;1.0;2
569.766;123.5;2.51221e-07;1.0;2
570.995;123.75;3.69888e-07;1.0;2
572.223;124.0;5.41475e-07;1.0;2
573.451;124.25;7.88823e-07;1.0;2
574.685;124.5;1.14541e-06;1.0;2
575.917;124.75;1.65392e-06;1.0;2
577.149;125.0;2.37565e-06;1.0;2
578.389;125.25;3.40314e-06;1.0;2
579.631;125.5;4.85294e-06;1.0;2
580.8682;125.75;6.87481e-06;1.0;2
582.1069;126.0;9.69315e-06;1.0;2
583.346;126.25;1.35973e-05;1.0;2
584.581;126.5;1.89573e-05;1.0;2
585.816;126.75;2.62934e-05;1.0;2
587.052;127.0;3.6295e-05;1.0;2
588.2876;127.25;4.98316e-05;1.0;2
589.524;127.5;6.80778e-05;1.0;2
590.7589;127.75;9.2516e-05;1.0;2
591.998;128.0;0.00012521;1.0;2
593.24;128.25;0.000168656;1.0;2
594.481;128.5;0.000225982;1.0;2
595.723;128.75;0.000301313;1.0;2
596.964;129.0;0.000399643;1.0;2
598.207;129.25;0.000527481;1.0;2
599.451;129.5;0.000692707;1.0;2
600.693;129.75;0.00090475;1.0;2
601.936;130.0;0.00117559;1.0;2
603.178;130.25;0.00151966;1.0;2
604.421;130.5;0.00195459;1.0;2
605.666;130.75;0.00250166;1.0;2
606.909;131.0;0.00318377;1.0;2
608.15;131.25;0.00403026;1.0;2
609.393;131.5;0.00507707;1.0;2
610.636;131.75;0.00636199;1.0;2
611.878;132.0;0.00792984;1.0;2
613.123;132.25;0.00983877;1.0;2
614.366;132.5;0.0121386;1.0;2
615.6071;132.75;0.014895;1.0;2
616.8482;133.0;0.0181825;1.0;2
618.089;133.25;0.0220803;1.0;2
619.3303;133.5;0.026677;1.0;2
620.572;133.75;0.0320686;1.0;2
621.815;134.0;0.0383538;1.0;2
623.054;134.25;0.0456075;1.0;2
624.294;134.5;0.0539628;1.0;2
625.534;134.75;0.0635257;1.0;2
626.776;135.0;0.0744084;1.0;2
628.015;135.25;0.0866805;1.0;2
629.254;135.5;0.100452;1.0;2
630.492;135.75;0.115806;1.0;2
631.726;136.0;0.132771;1.0;2
632.962;136.25;0.151453;1.0;2
634.196;136.5;0.171871;1.0;2
635.431;136.75;0.194035;1.0;2
636.6665;137.0;0.217976;1.0;2
637.901;137.25;0.243593;1.0;2
639.138;137.5;0.270871;1.0;2
640.374;137.75;0.299657;1.0;2
641.611;138.0;0.329809;1.0;2
642.848;138.25;0.361156;1.0;2
644.087;138.5;0.393481;1.0;2
645.323;138.75;0.426433;1.0;2
646.558;139.0;0.459764;1.0;2
647.793;139.25;0.493146;1.0;2
649.027;139.5;0.526256;1.0;2
650.261;139.75;0.558698;1.0;2
651.493;140.0;0.590061;1.0;2
652.725;140.25;0.620026;1.0;2
653.958;140.5;0.648208;1.0;2
655.188;140.75;0.67417;1.0;2
656.4166;141.0;0.697603;1.0;2
657.646;141.25;0.718206;1.0;2
658.874;141.5;0.735657;1.0;2
660.101;141.75;0.749717;1.0;2
661.33;142.0;0.760202;1.0;2
662.559;142.25;0.766935;1.0;2
663.787;142.5;0.769812;1.0;2
665.017;142.75;0.768794;1.0;2
666.247;143.0;0.763885;1.0;2
667.4744;143.25;0.755186;1.0;2
668.703;143.5;0.742805;1.0;2
669.931;143.75;0.72694;1.0;2
671.154;144.0;0.707902;1.0;2
672.376;144.25;0.685936;1.0;2
673.597;144.5;0.661331;1.0;2
674.8184;144.75;0.634435;1.0;2
676.039;145.0;0.605606;1.0;2
677.258;145.25;0.575233;1.0;2
678.477;145.5;0.543678;1.0;2
679.697;145.75;0.51126;1.0;2
680.915;146.0;0.478421;1.0;2
682.131;146.25;0.445536;1.0;2
683.346;146.5;0.412884;1.0;2
684.56;146.75;0.380764;1.0;2
685.775;147.0;0.349362;1.0;2
686.986;147.25;0.319092;1.0;2
688.196;147.5;0.290009;1.0;2
689.407;147.75;0.262287;1.0;2
690.618;148.0;0.236037;1.0;2
691.831;148.25;0.211334;1.0;2
693.043;148.5;0.188301;1.0;2
694.256;148.75;0.166927;1.0;2
695.473;149.0;0.147192;1.0;2
696.694;149.25;0.129095;1.0;2
697.916;149.5;0.112644;1.0;2
699.142;149.75;0.0977525;1.0;2
700.371;150.0;0.0843697;1.0;2
701.601;150.25;0.0724407;1.0;2
702.831;150.5;0.0618859;1.0;2
704.06;150.75;0.0526006;1.0;2
705.291;151.0;0.0444785;1.0;2
706.526;151.25;0.0373951;1.0;2
707.761;151.5;0.0312763;1.0;2
708.999;151.75;0.0260155;1.0;2
710.236;152.0;0.0215337;1.0;2
711.471;152.25;0.0177359;1.0;2
712.7091;152.5;0.0145275;1.0;2
713.945;152.75;0.0118422;1.0;2
715.181;153.0;0.00960449;1.0;2
716.416;153.25;0.00774984;1.0;2
717.649;153.5;0.00622369;1.0;2
718.885;153.75;0.0049702;1.0;2
720.121;154.0;0.00394928;1.0;2
721.3571;154.25;0.00312155;1.0;2
722.592;154.5;0.00245525;1.0;2
723.827;154.75;0.00192148;1.0;2
725.061;155.0;0.00149605;1.0;2
726.296;155.25;0.0011589;1.0;2
727.532;155.5;0.000892857;1.0;2
728.769;155.75;0.000684168;1.0;2
730.006;156.0;0.000521647;1.0;2
731.242;156.25;0.000395769;1.0;2
732.478;156.5;0.000298711;1.0;2
733.712;156.75;0.000224403;1.0;2
734.95;157.0;0.000167583;1.0;2
736.187;157.25;0.000124543;1.0;2
737.423;157.5;9.20838e-05;1.0;2
738.661;157.75;6.77058e-05;1.0;2
739.898;158.0;4.95428e-05;1.0;2
741.135;158.25;3.60653e-05;1.0;2
742.371;158.5;2.61286e-05;1.0;2
743.607;158.75;1.88319e-05;1.0;2
744.842;159.0;1.35068e-05;1.0;2
746.0747;159.25;9.64362e-06;1.0;2
747.308;159.5;6.85037e-06;1.0;2
748.542;159.75;4.83903e-06;1.0;2
749.774;160.0;3.4034e-06;1.0;2
751.007;160.25;2.38095e-06;1.0;2
752.241;160.5;1.6565e-06;1.0;2
753.474;160.75;1.1471e-06;1.0;2
754.709;161.0;7.89648e-07;1.0;2
755.944;161.25;5.40785e-07;1.0;2
757.179;161.5;3.68622e-07;1.0;2
758.412;161.75;2.50029e-07;1.0;2
759.647;162.0;1.6868e-07;1.0;2
760.88;162.25;1.13237e-07;1.0;2
762.116;162.5;7.55809e-08;1.0;2
763.351;162.75;5.02047e-08;1.0;2
764.587;163.0;3.31656e-08;1.0;2
765.823;163.25;2.17968e-08;1.0;2
767.059;163.5;1.42554e-08;1.0;2
768.295;163.75;9.27251e-09;1.0;2
769.532;164.0;5.99941e-09;1.0;2
770.77;164.25;3.86059e-09;1.0;2
772.008;164.5;2.47076e-09;1.0;2
773.247;164.75;1.57317e-09;1.0;2
774.484;165.0;9.96752e-10;1.0;2
775.722;165.25;6.28278e-10;1.0;2
776.962;165.5;3.93691e-10;1.0;2
778.1998;165.75;2.45651e-10;1.0;2
779.436;166.0;1.52568e-10;1.0;2
780.671;166.25;9.43077e-11;1.0;2
781.905;166.5;5.80327e-11;1.0;2
783.14;166.75;3.55129e-11;1.0;2
784.3755;167.0;2.16128e-11;1.0;2
785.609;167.25;1.30974e-11;1.0;2
786.842;167.5;7.9003e-12;1.0;2
788.077;167.75;4.73631e-12;1.0;2
789.312;168.0;2.82397e-12;1.0;2
790.548;168.25;1.67555e-12;1.0;2
791.782;168.5;9.89344e-13;1.0;2
793.017;168.75;5.81047e-13;1.0;2
794.255;169.0;3.39085e-13;1.0;2
795.493;169.25;1.96892e-13;1.0;2
796.729;169.5;1.13797e-13;1.0;2
797.966;169.75;6.54285e-14;1.0;2
799.2;170.0;3.7472e-14;1.0;2
800.435;170.25;2.13401e-14;1.0;2
801.672;170.5;1.20857e-14;1.0;2
802.905;170.75;6.81895e-15;1.0;2
804.141;171.0;3.82174e-15;1.0;2
805.379;171.25;2.13007e-15;1.0;2
806.613;171.5;1.18292e-15;1.0;2
807.846;171.75;6.54101e-16;1.0;2
809.08;172.0;3.59521e-16;1.0;2
810.312;172.25;1.96856e-16;1.0;2
811.544;172.5;1.07227e-16;1.0;2
812.779;172.75;5.80245e-17;1.0;2
814.012;173.0;3.12571e-17;1.0;2
815.245;173.25;1.67639e-17;1.0;2
816.475;173.5;8.95594e-18;1.0;2
817.709;173.75;4.75131e-18;1.0;2
818.944;174.0;2.50621e-18;1.0;2
820.177;174.25;1.31635e-18;1.0;2
821.41;174.5;6.88059e-19;1.0;2
822.643;174.75;3.57743e-19;1.0;2
823.877;175.0;1.84979e-19;1.0;2
825.111;175.25;9.51411e-20;1.0;2
826.346;175.5;4.86717e-20;1.0;2
827.58;175.75;2.4783e-20;1.0;2
828.815;176.0;1.25452e-20;1.0;2
830.051;176.25;6.31834e-21;1.0;2
831.283;176.5;3.1715e-21;1.0;2
832.518;176.75;1.58096e-21;1.0;2
833.752;177.0;7.84776e-22;1.0;2
834.987;177.25;3.87195e-22;1.0;2
836.222;177.5;1.90153e-22;1.0;2
837.455;177.75;9.2987e-23;1.0;2
838.691;178.0;4.51728e-23;1.0;2
839.927;178.25;2.18249e-23;1.0;2
841.162;178.5;1.04958e-23;1.0;2
842.396;178.75;5.02597e-24;1.0;2
843.63;179.0;2.39491e-24;1.0;2
844.866;179.25;1.13394e-24;1.0;2
846.101;179.5;5.34216e-25;1.0;2
847.336;179.75;2.506e-25;1.0;2
848.569;180.0;1.16989e-25;1.0;2
849.801;180.25;5.44054e-26;1.0;2
851.034;180.5;2.51511e-26;1.0;2
852.2652;180.75;1.15836e-26;1.0;2
853.5;181.0;5.29611e-27;1.0;2
854.7352;181.25;2.40728e-27;1.0;2
855.969;181.5;1.08963e-27;1.0;2
857.203;181.75;4.90876e-28;1.0;2
858.438;182.0;2.19821e-28;1.0;2
859.672;182.25;9.79838e-29;1.0;2
860.904;182.5;4.34996e-29;1.0;2
862.139;182.75;1.91913e-29;1.0;2
863.372;183.0;8.42804e-30;1.0;2
864.607;183.25;3.67855e-30;1.0;2
865.842;183.5;1.59723e-30;1.0;2
867.076;183.75;6.90518e-31;1.0;2
868.312;184.0;2.96593e-31;1.0;2
869.548;184.25;1.26763e-31;1.0;2
870.783;184.5;5.39311e-32;1.0;2
872.0177;184.75;2.28276e-32;1.0;2
873.2523;185.0;9.61524e-33;1.0;2
874.487;185.25;4.03008e-33;1.0;2
875.721;185.5;1.68111e-33;1.0;2
876.955;185.75;6.97397e-34;1.0;2
878.1884;186.0;2.88038e-34;1.0;2
879.421;186.25;1.184e-34;1.0;2
880.653;186.5;4.84671e-35;1.0;2
881.887;186.75;1.97117e-35;1.0;2
883.121;187.0;7.96911e-36;1.0;2
884.353;187.25;3.21159e-36;1.0;2
885.587;187.5;1.2865e-36;1.0;2
886.822;187.75;5.12194e-37;1.0;2
888.055;188.0;2.03076e-37;1.0;2
889.289;188.25;8.00993e-38;1.0;2
890.521;188.5;3.14548e-38;1.0;2
891.756;188.75;1.227e-38;1.0;2
892.986;189.0;4.77781e-39;1.0;2
894.216;189.25;1.85158e-39;1.0;2
895.45;189.5;7.11617e-40;1.0;2
896.682;189.75;2.72594e-40;1.0;2
897.912;190.0;1.04005e-40;1.0;2
899.145;190.25;3.94141e-41;1.0;2
900.3779;190.5;1.48539e-41;1.0;2
901.61;190.75;5.57188e-42;1.0;2
902.845;191.0;2.0756e-42;1.0;2
904.0798;191.25;7.69395e-43;1.0;2
905.315;191.5;2.83518e-43;1.0;2
906.55;191.75;1.0398e-43;1.0;2