File: src/data/kinetics/multipeaks/q5/peak_1.txt
#EXPORTTYPE:DATA SINGLE
#FILE:00592013__Al2O3_900_5_N2_20_air_20.ngb-ds1
#FTYPE:ANSI
#IDENTITY:005920
#DECIMAL:POINT
#SEPARATOR:SEMICOLON
#MTYPE:DSC
#PROJECT:
#DATE/TIME:21.07.2025 08:33
#CORR. FILE:005919_bline_Al2O3_900_5_N2_20_air_20.ngb-bs1
#TEMPCAL:TCALZERO.TCX
#SENSITIVITY:SENSZERO.EXX
#LABORATORY: 11
#OPERATOR:
#REMARK:
#SAMPLE:1
#SAMPLE MASS /mg:9.99
#MATERIAL:
#REFERENCE:
#REFERENCE MASS /mg:0
#TYPE OF CRUCIBLE:DSC/TG pan Al2O3
#SAMPLE CRUCIBLE MASS /mg:0
#REFERENCE CRUCIBLE MASS /mg:0
#DSC RANGE /V:5000
#TG RANGE /mg:5000
#TAU-R:---
#CORR. CODE:020
#EXO:+1
#RANGE:35C/00:00/35C/5,0(K/min)/920C/
#SEGMENT:S1-2/2
#SEG. 1:35C/00:15/35C
#SEG. 2:35C/5,0(K/min)/920C

##Temp./C;Time/min;DSC/(uV/mg);Sensit./(uV/mW);Segment
34.17636;0.25;3.53636e-102;1.0;1
34.17971;0.5;3.54719e-102;1.0;1
34.17888;0.75;3.5445e-102;1.0;1
34.17688;1.0;3.53804e-102;1.0;1
34.17253;1.25;3.52403e-102;1.0;1
34.17059;1.5;3.5178e-102;1.0;1
34.16876;1.75;3.51193e-102;1.0;1
34.16682;2.0;3.50573e-102;1.0;1
34.16441;2.25;3.49803e-102;1.0;1
34.16576;2.5;3.50234e-102;1.0;1
34.17024;2.75;3.51668e-102;1.0;1
34.16623;3.0;3.50384e-102;1.0;1
34.16288;3.25;3.49315e-102;1.0;1
34.16018;3.5;3.48456e-102;1.0;1
34.158;3.75;3.47763e-102;1.0;1
34.16165;4.0;3.48923e-102;1.0;1
34.16312;4.25;3.49391e-102;1.0;1
34.16582;4.5;3.50253e-102;1.0;1
34.16759;4.75;3.50819e-102;1.0;1
34.16271;5.0;3.49261e-102;1.0;1
34.15965;5.25;3.48287e-102;1.0;1
34.15641;5.5;3.47259e-102;1.0;1
34.15535;5.75;3.46924e-102;1.0;1
34.15588;6.0;3.47092e-102;1.0;1
34.15641;6.25;3.47259e-102;1.0;1
34.15753;6.5;3.47614e-102;1.0;1
34.15565;6.75;3.47019e-102;1.0;1
34.15471;7.0;3.46721e-102;1.0;1
34.15547;7.25;3.46962e-102;1.0;1
34.15894;7.5;3.48062e-102;1.0;1
34.15988;7.75;3.4836e-102;1.0;1
34.157;8.0;3.47446e-102;1.0;1
34.15382;8.25;3.4644e-102;1.0;1
34.15247;8.5;3.46014e-102;1.0;1
34.15324;8.75;3.46257e-102;1.0;1
34.15406;9.0;3.46516e-102;1.0;1
34.15082;9.25;3.45493e-102;1.0;1
34.15171;9.5;3.45774e-102;1.0;1
34.15165;9.75;3.45755e-102;1.0;1
34.15165;10.0;3.45755e-102;1.0;1
34.15094;10.25;3.45531e-102;1.0;1
34.14553;10.5;3.4383e-102;1.0;1
34.14282;10.75;3.42981e-102;1.0;1
34.14235;11.0;3.42834e-102;1.0;1
34.13906;11.25;3.41807e-102;1.0;1
34.13618;11.5;3.4091e-102;1.0;1
34.13253;11.75;3.39777e-102;1.0;1
34.12859;12.0;3.38558e-102;1.0;1
34.12518;12.25;3.37507e-102;1.0;1
34.12371;12.5;3.37054e-102;1.0;1
34.123;12.75;3.36836e-102;1.0;1
34.12447;13.0;3.37288e-102;1.0;1
34.12429;13.25;3.37233e-102;1.0;1
34.12471;13.5;3.37362e-102;1.0;1
34.12024;13.75;3.35989e-102;1.0;1
34.115;14.0;3.34387e-102;1.0;1
34.10647;14.25;3.31795e-102;1.0;1
34.10235;14.5;3.3055e-102;1.0;1
34.10264;14.75;3.30638e-102;1.0;1
34.11549;15.0;3.34536e-102;1.0;2
34.10516;15.25;3.31399e-102;1.0;2
34.13672;15.5;3.41078e-102;1.0;2
34.23371;15.75;3.72626e-102;1.0;2
34.42622;16.0;4.44129e-102;1.0;2
34.72104;16.25;5.81039e-102;1.0;2
35.12375;16.5;8.38491e-102;1.0;2
35.61708;16.75;1.31361e-101;1.0;2
36.1925;17.0;2.21634e-101;1.0;2
36.83655;17.25;3.9774e-101;1.0;2
37.54164;17.5;7.53812e-101;1.0;2
38.29774;17.75;1.49482e-100;1.0;2
39.09878;18.0;3.08392e-100;1.0;2
39.94421;18.25;6.61467e-100;1.0;2
40.82469;18.5;1.4624e-99;1.0;2
41.7454;18.75;3.34754e-99;1.0;2
42.69183;19.0;7.82979e-99;1.0;2
43.66753;19.25;1.87699e-98;1.0;2
44.66731;19.5;4.58967e-98;1.0;2
45.6928;19.75;1.14626e-97;1.0;2
46.74168;20.0;2.91752e-97;1.0;2
47.8057;20.25;7.51154e-97;1.0;2
48.88834;20.5;1.96216e-96;1.0;2
49.98967;20.75;5.20006e-96;1.0;2
51.10446;21.0;1.39156e-95;1.0;2
52.23305;21.25;3.76103e-95;1.0;2
53.37523;21.5;1.02638e-94;1.0;2
54.5253;21.75;2.81388e-94;1.0;2
55.68474;22.0;7.75953e-94;1.0;2
56.85935;22.25;2.16306e-93;1.0;2
58.04364;22.5;6.06585e-93;1.0;2
59.23476;22.75;1.70688e-92;1.0;2
60.43665;23.0;4.83579e-92;1.0;2
61.64896;23.25;1.37886e-91;1.0;2
62.86358;23.5;3.92917e-91;1.0;2
64.0847;23.75;1.12296e-90;1.0;2
65.30787;24.0;3.20657e-90;1.0;2
66.53528;24.25;9.16499e-90;1.0;2
67.76738;24.5;2.62298e-89;1.0;2
69.00398;24.75;7.5153e-89;1.0;2
70.24448;25.0;2.15453e-88;1.0;2
71.48621;25.25;6.16622e-88;1.0;2
72.72937;25.5;1.76205e-87;1.0;2
73.97395;25.75;5.02739e-87;1.0;2
75.22398;26.0;1.43699e-86;1.0;2
76.46965;26.25;4.08107e-86;1.0;2
77.71669;26.5;1.15715e-85;1.0;2
78.96561;26.75;3.27707e-85;1.0;2
80.21691;27.0;9.27325e-85;1.0;2
81.47146;27.25;2.62384e-84;1.0;2
82.72618;27.5;7.40433e-84;1.0;2
83.9838;27.75;2.0886e-83;1.0;2
85.24469;28.0;5.89072e-83;1.0;2
86.50762;28.25;1.6595e-82;1.0;2
87.77336;28.5;4.67252e-82;1.0;2
89.03755;28.75;1.3102e-81;1.0;2
90.30329;29.0;3.66805e-81;1.0;2
91.5698;29.25;1.02463e-80;1.0;2
92.84121;29.5;2.86533e-80;1.0;2
94.11325;29.75;7.99382e-80;1.0;2
95.38379;30.0;2.22106e-79;1.0;2
96.65528;30.25;6.15813e-79;1.0;2
97.92917;30.5;1.70577e-78;1.0;2
99.20502;30.75;4.71862e-78;1.0;2
100.482;31.0;1.30255e-77;1.0;2
101.761;31.25;3.59179e-77;1.0;2
103.0401;31.5;9.87486e-77;1.0;2
104.318;31.75;2.70451e-76;1.0;2
105.595;32.0;7.37944e-76;1.0;2
106.873;32.25;2.00936e-75;1.0;2
108.15;32.5;5.45102e-75;1.0;2
109.424;32.75;1.47165e-74;1.0;2
110.698;33.0;3.96111e-74;1.0;2
111.973;33.25;1.06328e-73;1.0;2
113.248;33.5;2.84702e-73;1.0;2
114.5243;33.75;7.61087e-73;1.0;2
115.8;34.0;2.02715e-72;1.0;2
117.071;34.25;5.36341e-72;1.0;2
118.344;34.5;1.41821e-71;1.0;2
119.615;34.75;3.73168e-71;1.0;2
120.886;35.0;9.79207e-71;1.0;2
122.16;35.25;2.56725e-70;1.0;2
123.434;35.5;6.71231e-70;1.0;2
124.708;35.75;1.74954e-69;1.0;2
125.984;36.0;4.55582e-69;1.0;2
127.259;36.25;1.18117e-68;1.0;2
128.536;36.5;3.05987e-68;1.0;2
129.815;36.75;7.91602e-68;1.0;2
131.096;37.0;2.04368e-67;1.0;2
132.375;37.25;5.25837e-67;1.0;2
133.6561;37.5;1.34997e-66;1.0;2
134.935;37.75;3.45016e-66;1.0;2
136.213;38.0;8.78923e-66;1.0;2
137.494;38.25;2.23733e-65;1.0;2
138.773;38.5;5.67161e-65;1.0;2
140.055;38.75;1.4357e-64;1.0;2
141.336;39.0;3.62373e-64;1.0;2
142.619;39.25;9.12768e-64;1.0;2
143.902;39.5;2.2934e-63;1.0;2
145.189;39.75;5.76346e-63;1.0;2
146.477;40.0;1.44426e-62;1.0;2
147.764;40.25;3.60595e-62;1.0;2
149.052;40.5;8.98561e-62;1.0;2
150.3408;40.75;2.23337e-61;1.0;2
151.63;41.0;5.53548e-61;1.0;2
152.914;41.25;1.36374e-60;1.0;2
154.201;41.5;3.35619e-60;1.0;2
155.491;41.75;8.24632e-60;1.0;2
156.779;42.0;2.0188e-59;1.0;2
158.066;42.25;4.92318e-59;1.0;2
159.352;42.5;1.19667e-58;1.0;2
160.638;42.75;2.89871e-58;1.0;2
161.923;43.0;7.00197e-58;1.0;2
163.2086;43.25;1.68565e-57;1.0;2
164.4928;43.5;4.0434e-57;1.0;2
165.782;43.75;9.70035e-57;1.0;2
167.069;44.0;2.31886e-56;1.0;2
168.35;44.25;5.49936e-56;1.0;2
169.63;44.5;1.30034e-55;1.0;2
170.916;44.75;3.07626e-55;1.0;2
172.2;45.0;7.25013e-55;1.0;2
173.484;45.25;1.70388e-54;1.0;2
174.772;45.5;4.0014e-54;1.0;2
176.055;45.75;9.34484e-54;1.0;2
177.339;46.0;2.17629e-53;1.0;2
178.6242;46.25;5.05654e-53;1.0;2
179.907;46.5;1.17014e-52;1.0;2
181.188;46.75;2.69595e-52;1.0;2
182.47;47.0;6.19666e-52;1.0;2
183.751;47.25;1.41936e-51;1.0;2
185.034;47.5;3.24655e-51;1.0;2
186.318;47.75;7.40557e-51;1.0;2
187.6;48.0;1.68263e-50;1.0;2
188.884;48.25;3.81655e-50;1.0;2
190.169;48.5;8.64012e-50;1.0;2
191.455;48.75;1.95092e-49;1.0;2
192.741;49.0;4.39056e-49;1.0;2
194.027;49.25;9.85906e-49;1.0;2
195.314;49.5;2.20683e-48;1.0;2
196.596;49.75;4.91391e-48;1.0;2
197.878;50.0;1.09072e-47;1.0;2
199.164;50.25;2.41933e-47;1.0;2
200.448;50.5;5.34353e-47;1.0;2
201.731;50.75;1.17682e-46;1.0;2
203.018;51.0;2.58852e-46;1.0;2
204.303;51.25;5.67403e-46;1.0;2
205.589;51.5;1.24022e-45;1.0;2
206.875;51.75;2.70335e-45;1.0;2
208.16;52.0;5.86978e-45;1.0;2
209.443;52.25;1.27e-44;1.0;2
210.727;52.5;2.73948e-44;1.0;2
212.011;52.75;5.89442e-44;1.0;2
213.2936;53.0;1.26355e-43;1.0;2
214.5738;53.25;2.69664e-43;1.0;2
215.857;53.5;5.74828e-43;1.0;2
217.1376;53.75;1.21998e-42;1.0;2
218.417;54.0;2.57965e-42;1.0;2
219.696;54.25;5.43834e-42;1.0;2
220.974;54.5;1.14244e-41;1.0;2
222.254;54.75;2.3949e-41;1.0;2
223.532;55.0;5.00337e-41;1.0;2
224.81;55.25;1.04179e-40;1.0;2
226.091;55.5;2.16603e-40;1.0;2
227.368;55.75;4.48378e-40;1.0;2
228.648;56.0;9.26221e-40;1.0;2
229.928;56.25;1.90879e-39;1.0;2
231.206;56.5;3.91848e-39;1.0;2
232.486;56.75;8.02375e-39;1.0;2
233.765;57.0;1.63867e-38;1.0;2
235.045;57.25;3.33644e-38;1.0;2
236.323;57.5;6.76911e-38;1.0;2
237.601;57.75;1.36883e-37;1.0;2
238.878;58.0;2.75927e-37;1.0;2
240.155;58.25;5.54725e-37;1.0;2
241.433;58.5;1.11238e-36;1.0;2
242.71;58.75;2.22249e-36;1.0;2
243.985;59.0;4.42378e-36;1.0;2
245.262;59.25;8.78664e-36;1.0;2
246.539;59.5;1.74007e-35;1.0;2
247.816;59.75;3.43739e-35;1.0;2
249.096;60.0;6.78062e-35;1.0;2
250.374;60.25;1.33227e-34;1.0;2
251.654;60.5;2.61263e-34;1.0;2
252.931;60.75;5.09993e-34;1.0;2
254.205;61.0;9.91419e-34;1.0;2
255.482;61.25;1.92395e-33;1.0;2
256.759;61.5;3.72447e-33;1.0;2
258.036;61.75;7.18479e-33;1.0;2
259.311;62.0;1.38103e-32;1.0;2
260.5913;62.25;2.65463e-32;1.0;2
261.867;62.5;5.07561e-32;1.0;2
263.142;62.75;9.67112e-32;1.0;2
264.4204;63.0;1.84064e-31;1.0;2
265.7;63.25;3.49461e-31;1.0;2
266.978;63.5;6.61176e-31;1.0;2
268.256;63.75;1.24747e-30;1.0;2
269.535;64.0;2.3478e-30;1.0;2
270.812;64.25;4.40023e-30;1.0;2
272.086;64.5;8.21273e-30;1.0;2
273.359;64.75;1.52774e-29;1.0;2
274.632;65.0;2.83297e-29;1.0;2
275.906;65.25;5.24249e-29;1.0;2
277.181;65.5;9.67714e-29;1.0;2
278.456;65.75;1.78063e-28;1.0;2
279.729;66.0;3.26514e-28;1.0;2
281.006;66.25;5.9801e-28;1.0;2
282.284;66.5;1.09279e-27;1.0;2
283.56;66.75;1.98851e-27;1.0;2
284.836;67.0;3.60953e-27;1.0;2
286.111;67.25;6.52931e-27;1.0;2
287.388;67.5;1.17843e-26;1.0;2
288.666;67.75;2.122e-26;1.0;2
289.94;68.0;3.80387e-26;1.0;2
291.213;68.25;6.79423e-26;1.0;2
292.485;68.5;1.20968e-25;1.0;2
293.757;68.75;2.14743e-25;1.0;2
295.031;69.0;3.80494e-25;1.0;2
296.307;69.25;6.72899e-25;1.0;2
297.582;69.5;1.18568e-24;1.0;2
298.8559;69.75;2.08247e-24;1.0;2
300.129;70.0;3.64579e-24;1.0;2
301.402;70.25;6.36339e-24;1.0;2
302.675;70.5;1.10764e-23;1.0;2
303.947;70.75;1.92151e-23;1.0;2
305.218;71.0;3.32235e-23;1.0;2
306.486;71.25;5.72174e-23;1.0;2
307.755;71.5;9.82728e-23;1.0;2
309.028;71.75;1.68581e-22;1.0;2
310.299;72.0;2.88091e-22;1.0;2
311.568;72.25;4.90634e-22;1.0;2
312.838;72.5;8.33419e-22;1.0;2
314.107;72.75;1.41132e-21;1.0;2
315.373;73.0;2.38002e-21;1.0;2
316.642;73.25;4.00682e-21;1.0;2
317.912;73.5;6.72901e-21;1.0;2
319.1809;73.75;1.12634e-20;1.0;2
320.449;74.0;1.87936e-20;1.0;2
321.7193;74.25;3.12943e-20;1.0;2
322.988;74.5;5.19262e-20;1.0;2
324.258;74.75;8.59664e-20;1.0;2
325.526;75.0;1.41811e-19;1.0;2
326.7946;75.25;2.3327e-19;1.0;2
328.063;75.5;3.82633e-19;1.0;2
329.332;75.75;6.25926e-19;1.0;2
330.599;76.0;1.02039e-18;1.0;2
331.868;76.25;1.6594e-18;1.0;2
333.139;76.5;2.69433e-18;1.0;2
334.409;76.75;4.35874e-18;1.0;2
335.672;77.0;7.0145e-18;1.0;2
336.935;77.25;1.12546e-17;1.0;2
338.201;77.5;1.80207e-17;1.0;2
339.467;77.75;2.8786e-17;1.0;2
340.734;78.0;4.58674e-17;1.0;2
342.001;78.25;7.28635e-17;1.0;2
343.267;78.5;1.1538e-16;1.0;2
344.533;78.75;1.82176e-16;1.0;2
345.801;79.0;2.87023e-16;1.0;2
347.068;79.25;4.50823e-16;1.0;2
348.3319;79.5;7.05304e-16;1.0;2
349.596;79.75;1.10047e-15;1.0;2
350.862;80.0;1.71276e-15;1.0;2
352.1271;80.25;2.65789e-15;1.0;2
353.392;80.5;4.11196e-15;1.0;2
354.658;80.75;6.34663e-15;1.0;2
355.923;81.0;9.76509e-15;1.0;2
357.19;81.25;1.49884e-14;1.0;2
358.457;81.5;2.29449e-14;1.0;2
359.7225;81.75;3.50088e-14;1.0;2
360.985;82.0;5.3211e-14;1.0;2
362.2481;82.25;8.06485e-14;1.0;2
363.513;82.5;1.21985e-13;1.0;2
364.776;82.75;1.83847e-13;1.0;2
366.039;83.0;2.76298e-13;1.0;2
367.303;83.25;4.14164e-13;1.0;2
368.565;83.5;6.18665e-13;1.0;2
369.826;83.75;9.21324e-13;1.0;2
371.086;84.0;1.36793e-12;1.0;2
372.3491;84.25;2.02665e-12;1.0;2
373.6113;84.5;2.99363e-12;1.0;2
374.87;84.75;4.40528e-12;1.0;2
376.134;85.0;6.47374e-12;1.0;2
377.3972;85.25;9.4837e-12;1.0;2
378.66;85.5;1.3853e-11;1.0;2
379.921;85.75;2.01668e-11;1.0;2
381.179;86.0;2.92522e-11;1.0;2
382.438;86.25;4.23233e-11;1.0;2
383.7;86.5;6.11011e-11;1.0;2
384.959;86.75;8.79007e-11;1.0;2
386.2178;87.0;1.26108e-10;1.0;2
387.478;87.25;1.80483e-10;1.0;2
388.738;87.5;2.575e-10;1.0;2
389.998;87.75;3.66395e-10;1.0;2
391.254;88.0;5.19328e-10;1.0;2
392.51;88.25;7.33914e-10;1.0;2
393.773;88.5;1.03628e-09;1.0;2
395.0354;88.75;1.45886e-09;1.0;2
396.297;89.0;2.04759e-09;1.0;2
397.556;89.25;2.86394e-09;1.0;2
398.817;89.5;3.99589e-09;1.0;2
400.079;89.75;5.56112e-09;1.0;2
401.34;90.0;7.71579e-09;1.0;2
402.599;90.25;1.06696e-08;1.0;2
403.858;90.5;1.47156e-08;1.0;2
405.119;90.75;2.02451e-08;1.0;2
406.379;91.0;2.77649e-08;1.0;2
407.638;91.25;3.79654e-08;1.0;2
408.901;91.5;5.18172e-08;1.0;2
410.16;91.75;7.0445e-08;1.0;2
411.418;92.0;9.54859e-08;1.0;2
412.676;92.25;1.2907e-07;1.0;2
413.935;92.5;1.74009e-07;1.0;2
415.192;92.75;2.33794e-07;1.0;2
416.4495;93.0;3.13339e-07;1.0;2
417.706;93.25;4.18647e-07;1.0;2
418.9638;93.5;5.57915e-07;1.0;2
420.221;93.75;7.41382e-07;1.0;2
421.478;94.0;9.82222e-07;1.0;2
422.7334;94.25;1.29736e-06;1.0;2
423.99;94.5;1.70912e-06;1.0;2
425.248;94.75;2.24609e-06;1.0;2
426.506;95.0;2.94351e-06;1.0;2
427.762;95.25;3.84497e-06;1.0;2
429.019;95.5;5.00889e-06;1.0;2
430.275;95.75;6.50549e-06;1.0;2
431.534;96.0;8.43266e-06;1.0;2
432.795;96.25;1.09026e-05;1.0;2
434.053;96.5;1.40476e-05;1.0;2
435.313;96.75;1.80535e-05;1.0;2
436.573;97.0;2.31428e-05;1.0;2
437.835;97.25;2.95907e-05;1.0;2
439.093;97.5;3.76951e-05;1.0;2
440.3477;97.75;4.78617e-05;1.0;2
441.604;98.0;6.06194e-05;1.0;2
442.859;98.25;7.6531e-05;1.0;2
444.117;98.5;9.64206e-05;1.0;2
445.377;98.75;0.000121158;1.0;2
446.638;99.0;0.000151851;1.0;2
447.8979;99.25;0.000189758;1.0;2
449.159;99.5;0.000236503;1.0;2
450.419;99.75;0.000293856;1.0;2
451.676;100.0;0.00036394;1.0;2
452.933;100.25;0.00044945;1.0;2
454.189;100.5;0.000553352;1.0;2
455.4418;100.75;0.000679052;1.0;2
456.696;101.0;0.00083121;1.0;2
457.9502;101.25;0.00101454;1.0;2
459.202;101.5;0.0012344;1.0;2
460.455;101.75;0.00149814;1.0;2
461.713;102.0;0.00181427;1.0;2
462.968;102.25;0.0021901;1.0;2
464.222;102.5;0.00263595;1.0;2
465.4741;102.75;0.00316296;1.0;2
466.727;103.0;0.00378516;1.0;2
467.98;103.25;0.00451696;1.0;2
469.233;103.5;0.00537513;1.0;2
470.486;103.75;0.00637923;1.0;2
471.739;104.0;0.00754902;1.0;2
472.992;104.25;0.00890862;1.0;2
474.243;104.5;0.0104816;1.0;2
475.4947;104.75;0.0122982;1.0;2
476.747;105.0;0.0143905;1.0;2
477.9978;105.25;0.0167896;1.0;2
479.249;105.5;0.0195342;1.0;2
480.501;105.75;0.0226681;1.0;2
481.753;106.0;0.0262293;1.0;2
483.006;106.25;0.030268;1.0;2
484.256;106.5;0.0348246;1.0;2
485.507;106.75;0.0399551;1.0;2
486.76;107.0;0.0457273;1.0;2
488.013;107.25;0.0521836;1.0;2
489.266;107.5;0.0593862;1.0;2
490.52;107.75;0.0674022;1.0;2
491.772;108.0;0.0762727;1.0;2
493.024;108.25;0.0860662;1.0;2
494.278;108.5;0.0968653;1.0;2
495.531;108.75;0.108707;1.0;2
496.782;109.0;0.121635;1.0;2
498.034;109.25;0.135744;1.0;2
499.287;109.5;0.151065;1.0;2
500.541;109.75;0.167661;1.0;2
501.7957;110.0;0.185571;1.0;2
503.048;110.25;0.20479;1.0;2
504.301;110.5;0.225364;1.0;2
505.554;110.75;0.247319;1.0;2
506.804;111.0;0.270617;1.0;2
508.055;111.25;0.295281;1.0;2
509.307;111.5;0.321338;1.0;2
510.562;111.75;0.34877;1.0;2
511.798;112.0;0.377054;1.0;2
513.034;112.25;0.406527;1.0;2
514.314;112.5;0.438226;1.0;2
515.603;112.75;0.471224;1.0;2
516.891;113.0;0.505217;1.0;2
518.177;113.25;0.539991;1.0;2
519.459;113.5;0.575371;1.0;2
520.74;113.75;0.611225;1.0;2
522.021;114.0;0.647437;1.0;2
523.318;114.25;0.684243;1.0;2
524.658;114.5;0.722191;1.0;2
526.025;114.75;0.760556;1.0;2
527.4373;115.0;0.79954;1.0;2
528.914;115.25;0.839261;1.0;2
530.34;115.5;0.876247;1.0;2
531.691;115.75;0.909752;1.0;2
533;116.0;0.940502;1.0;2
534.277;116.25;0.968662;1.0;2
535.532;116.5;0.994341;1.0;2
536.77;116.75;1.01755;1.0;2
537.996;117.0;1.03827;1.0;2
539.218;117.25;1.05652;1.0;2
540.437;117.5;1.0722;1.0;2
541.654;117.75;1.08522;1.0;2
542.871;118.0;1.09551;1.0;2
544.086;118.25;1.10298;1.0;2
545.2994;118.5;1.10758;1.0;2
546.514;118.75;1.10928;1.0;2
547.731;119.0;1.10807;1.0;2
548.947;119.25;1.10395;1.0;2
550.163;119.5;1.09696;1.0;2
551.381;119.75;1.08713;1.0;2
552.601;120.0;1.07452;1.0;2
553.823;120.25;1.05922;1.0;2
555.046;120.5;1.04135;1.0;2
556.2706;120.75;1.02103;1.0;2
557.497;121.0;0.998406;1.0;2
558.723;121.25;0.973685;1.0;2
559.947;121.5;0.947072;1.0;2
561.172;121.75;0.918722;1.0;2
562.398;122.0;0.888818;1.0;2
563.624;122.25;0.85758;1.0;2
564.8499;122.5;0.825237;1.0;2
566.077;122.75;0.791954;1.0;2
567.305;123.0;0.757976;1.0;2
568.536;123.25;0.723412;1.0;2
569.766;123.5;0.688583;1.0;2
570.995;123.75;0.65369;1.0;2
572.223;124.0;0.618961;1.0;2
573.451;124.25;0.584489;1.0;2
574.685;124.5;0.550293;1.0;2
575.917;124.75;0.516739;1.0;2
577.149;125.0;0.483936;1.0;2
578.389;125.25;0.45178;1.0;2
579.631;125.5;0.420553;1.0;2
580.8682;125.75;0.390533;1.0;2
582.1069;126.0;0.361634;1.0;2
583.346;126.25;0.333956;1.0;2
584.581;126.5;0.307632;1.0;2
585.816;126.75;0.282618;1.0;2
587.052;127.0;0.25891;1.0;2
588.2876;127.25;0.236563;1.0;2
589.524;127.5;0.215549;1.0;2
590.7589;127.75;0.195877;1.0;2
591.998;128.0;0.177458;1.0;2
593.24;128.25;0.160309;1.0;2
594.481;128.5;0.144426;1.0;2
595.723;128.75;0.129746;1.0;2
596.964;129.0;0.116244;1.0;2
598.207;129.25;0.103849;1.0;2
599.451;129.5;0.0925144;1.0;2
600.693;129.75;0.0822001;1.0;2
601.936;130.0;0.0728352;1.0;2
603.178;130.25;0.0643593;1.0;2
604.421;130.5;0.0567089;1.0;2
605.666;130.75;0.0498233;1.0;2
606.909;131.0;0.0436644;1.0;2
608.15;131.25;0.0381655;1.0;2
609.393;131.5;0.0332613;1.0;2
610.636;131.75;0.0289097;1.0;2
611.878;132.0;0.0250606;1.0;2
613.123;132.25;0.0216556;1.0;2
614.366;132.5;0.0186675;1.0;2
615.6071;132.75;0.0160504;1.0;2
616.8482;133.0;0.0137627;1.0;2
618.089;133.25;0.0117691;1.0;2
619.3303;133.5;0.0100363;1.0;2
620.572;133.75;0.00853406;1.0;2
621.815;134.0;0.00723626;1.0;2
623.054;134.25;0.00612244;1.0;2
624.294;134.5;0.00516508;1.0;2
625.534;134.75;0.00434511;1.0;2
626.776;135.0;0.00364473;1.0;2
628.015;135.25;0.00304992;1.0;2
629.254;135.5;0.00254537;1.0;2
630.492;135.75;0.00211869;1.0;2
631.726;136.0;0.00175963;1.0;2
632.962;136.25;0.00145735;1.0;2
634.196;136.5;0.00120383;1.0;2
635.431;136.75;0.000991802;1.0;2
636.6665;137.0;0.00081467;1.0;2
637.901;137.25;0.000667483;1.0;2
639.138;137.5;0.000545247;1.0;2
640.374;137.75;0.000444196;1.0;2
641.611;138.0;0.00036088;1.0;2
642.848;138.25;0.000292355;1.0;2
644.087;138.5;0.000236156;1.0;2
645.323;138.75;0.000190319;1.0;2
646.558;139.0;0.000152979;1.0;2
647.793;139.25;0.000122648;1.0;2
649.027;139.5;9.80608e-05;1.0;2
650.261;139.75;7.82034e-05;1.0;2
651.493;140.0;6.22229e-05;1.0;2
652.725;140.25;4.93713e-05;1.0;2
653.958;140.5;3.90657e-05;1.0;2
655.188;140.75;3.08433e-05;1.0;2
656.4166;141.0;2.42904e-05;1.0;2
657.646;141.25;1.90767e-05;1.0;2
658.874;141.5;1.49457e-05;1.0;2
660.101;141.75;1.16797e-05;1.0;2
661.33;142.0;9.10014e-06;1.0;2
662.559;142.25;7.07123e-06;1.0;2
663.787;142.5;5.4815e-06;1.0;2
665.017;142.75;4.23523e-06;1.0;2
666.247;143.0;3.2635e-06;1.0;2
667.4744;143.25;2.50976e-06;1.0;2
668.703;143.5;1.92431e-06;1.0;2
669.931;143.75;1.47162e-06;1.0;2
671.154;144.0;1.12363e-06;1.0;2
672.376;144.25;8.55925e-07;1.0;2
673.597;144.5;6.50286e-07;1.0;2
674.8184;144.75;4.9281e-07;1.0;2
676.039;145.0;3.7252e-07;1.0;2
677.258;145.25;2.80926e-07;1.0;2
678.477;145.5;2.11323e-07;1.0;2
679.697;145.75;1.58492e-07;1.0;2
680.915;146.0;1.186e-07;1.0;2
682.131;146.25;8.85704e-08;1.0;2
683.346;146.5;6.59869e-08;1.0;2
684.56;146.75;4.9047e-08;1.0;2
685.775;147.0;3.63431e-08;1.0;2
686.986;147.25;2.68944e-08;1.0;2
688.196;147.5;1.98491e-08;1.0;2
689.407;147.75;1.4612e-08;1.0;2
690.618;148.0;1.07268e-08;1.0;2
691.831;148.25;7.85035e-09;1.0;2
693.043;148.5;5.73164e-09;1.0;2
694.256;148.75;4.17214e-09;1.0;2
695.473;149.0;3.02604e-09;1.0;2
696.694;149.25;2.18688e-09;1.0;2
697.916;149.5;1.57578e-09;1.0;2
699.142;149.75;1.13123e-09;1.0;2
700.371;150.0;8.09216e-10;1.0;2
701.601;150.25;5.77136e-10;1.0;2
702.831;150.5;4.10547e-10;1.0;2
704.06;150.75;2.91253e-10;1.0;2
705.291;151.0;2.06034e-10;1.0;2
706.526;151.25;1.45165e-10;1.0;2
707.761;151.5;1.01984e-10;1.0;2
708.999;151.75;7.14037e-11;1.0;2
710.236;152.0;4.98792e-11;1.0;2
711.471;152.25;3.47603e-11;1.0;2
712.7091;152.5;2.4141e-11;1.0;2
713.945;152.75;1.67297e-11;1.0;2
715.181;153.0;1.15634e-11;1.0;2
716.416;153.25;7.971e-12;1.0;2
717.649;153.5;5.4832e-12;1.0;2
718.885;153.75;3.75862e-12;1.0;2
720.121;154.0;2.56991e-12;1.0;2
721.3571;154.25;1.75194e-12;1.0;2
722.592;154.5;1.19153e-12;1.0;2
723.827;154.75;8.083e-13;1.0;2
725.061;155.0;5.46826e-13;1.0;2
726.296;155.25;3.68949e-13;1.0;2
727.532;155.5;2.48138e-13;1.0;2
728.769;155.75;1.66361e-13;1.0;2
730.006;156.0;1.11255e-13;1.0;2
731.242;156.25;7.42212e-14;1.0;2
732.478;156.5;4.93756e-14;1.0;2
733.712;156.75;3.27791e-14;1.0;2
734.95;157.0;2.16773e-14;1.0;2
736.187;157.25;1.4302e-14;1.0;2
737.423;157.5;9.41057e-15;1.0;2
738.661;157.75;6.17148e-15;1.0;2
739.898;158.0;4.03811e-15;1.0;2
741.135;158.25;2.63491e-15;1.0;2
742.371;158.5;1.7154e-15;1.0;2
743.607;158.75;1.11368e-15;1.0;2
744.842;159.0;7.21293e-16;1.0;2
746.0747;159.25;4.66243e-16;1.0;2
747.308;159.5;3.00567e-16;1.0;2
748.542;159.75;1.93119e-16;1.0;2
749.774;160.0;1.23865e-16;1.0;2
751.007;160.25;7.92085e-17;1.0;2
752.241;160.5;5.0489e-17;1.0;2
753.474;160.75;3.21127e-17;1.0;2
754.709;161.0;2.03489e-17;1.0;2
755.944;161.25;1.2859e-17;1.0;2
757.179;161.5;8.10821e-18;1.0;2
758.412;161.75;5.09977e-18;1.0;2
759.647;162.0;3.19789e-18;1.0;2
760.88;162.25;2.00026e-18;1.0;2
762.116;162.5;1.24682e-18;1.0;2
763.351;162.75;7.75348e-19;1.0;2
764.587;163.0;4.80642e-19;1.0;2
765.823;163.25;2.97136e-19;1.0;2
767.059;163.5;1.83245e-19;1.0;2
768.295;163.75;1.12659e-19;1.0;2
769.532;164.0;6.90611e-20;1.0;2
770.77;164.25;4.22053e-20;1.0;2
772.008;164.5;2.57139e-20;1.0;2
773.247;164.75;1.56239e-20;1.0;2
774.484;165.0;9.46975e-21;1.0;2
775.722;165.25;5.72386e-21;1.0;2
776.962;165.5;3.44749e-21;1.0;2
778.1998;165.75;2.07281e-21;1.0;2
779.436;166.0;1.24355e-21;1.0;2
780.671;166.25;7.44326e-22;1.0;2
781.905;166.5;4.44597e-22;1.0;2
783.14;166.75;2.64722e-22;1.0;2
784.3755;167.0;1.57131e-22;1.0;2
785.609;167.25;9.30997e-23;1.0;2
786.842;167.5;5.50385e-23;1.0;2
788.077;167.75;3.24153e-23;1.0;2
789.312;168.0;1.90327e-23;1.0;2
790.548;168.25;1.11474e-23;1.0;2
791.782;168.5;6.51313e-24;1.0;2
793.017;168.75;3.79422e-24;1.0;2
794.255;169.0;2.20155e-24;1.0;2
795.493;169.25;1.27411e-24;1.0;2
796.729;169.5;7.35734e-25;1.0;2
797.966;169.75;4.23658e-25;1.0;2
799.2;170.0;2.43589e-25;1.0;2
800.435;170.25;1.39603e-25;1.0;2
801.672;170.5;7.97563e-26;1.0;2
802.905;170.75;4.55034e-26;1.0;2
804.141;171.0;2.58511e-26;1.0;2
805.379;171.25;1.46405e-26;1.0;2
806.613;171.5;8.28112e-27;1.0;2
807.846;171.75;4.67499e-27;1.0;2
809.08;172.0;2.62979e-27;1.0;2
810.312;172.25;1.47715e-27;1.0;2
811.544;172.5;8.27376e-28;1.0;2
812.779;172.75;4.61533e-28;1.0;2
814.012;173.0;2.56901e-28;1.0;2
815.245;173.25;1.42707e-28;1.0;2
816.475;173.5;7.91479e-29;1.0;2
817.709;173.75;4.3701e-29;1.0;2
818.944;174.0;2.40496e-29;1.0;2
820.177;174.25;1.32097e-29;1.0;2
821.41;174.5;7.23789e-30;1.0;2
822.643;174.75;3.95431e-30;1.0;2
823.877;175.0;2.15373e-30;1.0;2
825.111;175.25;1.16966e-30;1.0;2
826.346;175.5;6.33345e-31;1.0;2
827.58;175.75;3.42153e-31;1.0;2
828.815;176.0;1.84213e-31;1.0;2
830.051;176.25;9.89157e-32;1.0;2
831.283;176.5;5.3054e-32;1.0;2
832.518;176.75;2.83326e-32;1.0;2
833.752;177.0;1.51017e-32;1.0;2
834.987;177.25;8.02074e-33;1.0;2
836.222;177.5;4.25025e-33;1.0;2
837.455;177.75;2.24783e-33;1.0;2
838.691;178.0;1.18404e-33;1.0;2
839.927;178.25;6.21799e-34;1.0;2
841.162;178.5;3.25795e-34;1.0;2
842.396;178.75;1.70367e-34;1.0;2
843.63;179.0;8.88628e-35;1.0;2
844.866;179.25;4.61742e-35;1.0;2
846.101;179.5;2.39301e-35;1.0;2
847.336;179.75;1.23773e-35;1.0;2
848.569;180.0;6.38609e-36;1.0;2
849.801;180.25;3.28963e-36;1.0;2
851.034;180.5;1.68876e-36;1.0;2
852.2652;180.75;8.65601e-37;1.0;2
853.5;181.0;4.41642e-37;1.0;2
854.7352;181.25;2.24579e-37;1.0;2
855.969;181.5;1.13982e-37;1.0;2
857.203;181.75;5.77122e-38;1.0;2
858.438;182.0;2.91206e-38;1.0;2
859.672;182.25;1.466e-38;1.0;2
860.904;182.5;7.36692e-39;1.0;2
862.139;182.75;3.68846e-39;1.0;2
863.372;183.0;1.84253e-39;1.0;2
864.607;183.25;9.17119e-40;1.0;2
865.842;183.5;4.55229e-40;1.0;2
867.076;183.75;2.25497e-40;1.0;2
868.312;184.0;1.11269e-40;1.0;2
869.548;184.25;5.47627e-41;1.0;2
870.783;184.5;2.68917e-41;1.0;2
872.0177;184.75;1.31695e-41;1.0;2
873.2523;185.0;6.43325e-42;1.0;2
874.487;185.25;3.13454e-42;1.0;2
875.721;185.5;1.52358e-42;1.0;2
876.955;185.75;7.38299e-43;1.0;2
878.1884;186.0;3.57005e-43;1.0;2
879.421;186.25;1.72212e-43;1.0;2
880.653;186.5;8.29113e-44;1.0;2
881.887;186.75;3.97646e-44;1.0;2
883.121;187.0;1.90064e-44;1.0;2
884.353;187.25;9.07435e-45;1.0;2
885.587;187.5;4.31744e-45;1.0;2
886.822;187.75;2.04691e-45;1.0;2
888.055;188.0;9.68582e-46;1.0;2
889.289;188.25;4.57055e-46;1.0;2
890.521;188.5;2.15214e-46;1.0;2
891.756;188.75;1.00937e-46;1.0;2
892.986;189.0;4.73383e-47;1.0;2
894.216;189.25;2.2147e-47;1.0;2
895.45;189.5;1.03069e-47;1.0;2
896.682;189.75;4.79058e-48;1.0;2
897.912;190.0;2.22259e-48;1.0;2
899.145;190.25;1.02702e-48;1.0;2
900.3779;190.5;4.73118e-49;1.0;2
901.61;190.75;2.17438e-49;1.0;2
902.845;191.0;9.95159e-50;1.0;2
904.0798;191.25;4.54296e-50;1.0;2
905.315;191.5;2.06695e-50;1.0;2
906.55;191.75;9.3815e-51;1.0;2