File: src/data/kinetics/multipeaks/q5/peak_2.txt
#EXPORTTYPE:DATA SINGLE
#FILE:00592013__Al2O3_900_5_N2_20_air_20.ngb-ds1
#FTYPE:ANSI
#IDENTITY:005920
#DECIMAL:POINT
#SEPARATOR:SEMICOLON
#MTYPE:DSC
#PROJECT:
#DATE/TIME:21.07.2025 08:33
#CORR. FILE:005919_bline_Al2O3_900_5_N2_20_air_20.ngb-bs1
#TEMPCAL:TCALZERO.TCX
#SENSITIVITY:SENSZERO.EXX
#LABORATORY: 11
#OPERATOR:
#REMARK:
#SAMPLE:1
#SAMPLE MASS /mg:9.99
#MATERIAL:
#REFERENCE:
#REFERENCE MASS /mg:0
#TYPE OF CRUCIBLE:DSC/TG pan Al2O3
#SAMPLE CRUCIBLE MASS /mg:0
#REFERENCE CRUCIBLE MASS /mg:0
#DSC RANGE /V:5000
#TG RANGE /mg:5000
#TAU-R:---
#CORR. CODE:020
#EXO:+1
#RANGE:35C/00:00/35C/5,0(K/min)/920C/
#SEGMENT:S1-2/2
#SEG. 1:35C/00:15/35C
#SEG. 2:35C/5,0(K/min)/920C

##Temp./C;Time/min;DSC/(uV/mg);Sensit./(uV/mW);Segment
34.17636;0.25;1.4841e-67;1.0;1
34.17971;0.5;1.48674e-67;1.0;1
34.17888;0.75;1.48609e-67;1.0;1
34.17688;1.0;1.48451e-67;1.0;1
34.17253;1.25;1.48108e-67;1.0;1
34.17059;1.5;1.47955e-67;1.0;1
34.16876;1.75;1.47812e-67;1.0;1
34.16682;2.0;1.47659e-67;1.0;1
34.16441;2.25;1.4747e-67;1.0;1
34.16576;2.5;1.47576e-67;1.0;1
34.17024;2.75;1.47928e-67;1.0;1
34.16623;3.0;1.47613e-67;1.0;1
34.16288;3.25;1.4735e-67;1.0;1
34.16018;3.5;1.47139e-67;1.0;1
34.158;3.75;1.46969e-67;1.0;1
34.16165;4.0;1.47254e-67;1.0;1
34.16312;4.25;1.47369e-67;1.0;1
34.16582;4.5;1.47581e-67;1.0;1
34.16759;4.75;1.4772e-67;1.0;1
34.16271;5.0;1.47337e-67;1.0;1
34.15965;5.25;1.47098e-67;1.0;1
34.15641;5.5;1.46845e-67;1.0;1
34.15535;5.75;1.46762e-67;1.0;1
34.15588;6.0;1.46803e-67;1.0;1
34.15641;6.25;1.46845e-67;1.0;1
34.15753;6.5;1.46932e-67;1.0;1
34.15565;6.75;1.46785e-67;1.0;1
34.15471;7.0;1.46712e-67;1.0;1
34.15547;7.25;1.46771e-67;1.0;1
34.15894;7.5;1.47042e-67;1.0;1
34.15988;7.75;1.47116e-67;1.0;1
34.157;8.0;1.46891e-67;1.0;1
34.15382;8.25;1.46643e-67;1.0;1
34.15247;8.5;1.46537e-67;1.0;1
34.15324;8.75;1.46597e-67;1.0;1
34.15406;9.0;1.46661e-67;1.0;1
34.15082;9.25;1.46409e-67;1.0;1
34.15171;9.5;1.46478e-67;1.0;1
34.15165;9.75;1.46474e-67;1.0;1
34.15165;10.0;1.46474e-67;1.0;1
34.15094;10.25;1.46418e-67;1.0;1
34.14553;10.5;1.45998e-67;1.0;1
34.14282;10.75;1.45788e-67;1.0;1
34.14235;11.0;1.45751e-67;1.0;1
34.13906;11.25;1.45497e-67;1.0;1
34.13618;11.5;1.45274e-67;1.0;1
34.13253;11.75;1.44993e-67;1.0;1
34.12859;12.0;1.44689e-67;1.0;1
34.12518;12.25;1.44427e-67;1.0;1
34.12371;12.5;1.44314e-67;1.0;1
34.123;12.75;1.4426e-67;1.0;1
34.12447;13.0;1.44373e-67;1.0;1
34.12429;13.25;1.44359e-67;1.0;1
34.12471;13.5;1.44391e-67;1.0;1
34.12024;13.75;1.44049e-67;1.0;1
34.115;14.0;1.43648e-67;1.0;1
34.10647;14.25;1.42998e-67;1.0;1
34.10235;14.5;1.42685e-67;1.0;1
34.10264;14.75;1.42707e-67;1.0;1
34.11549;15.0;1.43685e-67;1.0;2
34.10516;15.25;1.42899e-67;1.0;2
34.13672;15.5;1.45316e-67;1.0;2
34.23371;15.75;1.53003e-67;1.0;2
34.42622;16.0;1.69481e-67;1.0;2
34.72104;16.25;1.98209e-67;1.0;2
35.12375;16.5;2.45445e-67;1.0;2
35.61708;16.75;3.18851e-67;1.0;2
36.1925;17.0;4.3252e-67;1.0;2
36.83655;17.25;6.08223e-67;1.0;2
37.54164;17.5;8.83002e-67;1.0;2
38.29774;17.75;1.3163e-66;1.0;2
39.09878;18.0;2.00818e-66;1.0;2
39.94421;18.25;3.13431e-66;1.0;2
40.82469;18.5;4.9796e-66;1.0;2
41.7454;18.75;8.07427e-66;1.0;2
42.69183;19.0;1.32594e-65;1.0;2
43.66753;19.25;2.2092e-65;1.0;2
44.66731;19.5;3.72412e-65;1.0;2
45.6928;19.75;6.35671e-65;1.0;2
46.74168;20.0;1.09725e-64;1.0;2
47.8057;20.25;1.907e-64;1.0;2
48.88834;20.5;3.343e-64;1.0;2
49.98967;20.75;5.91087e-64;1.0;2
51.10446;21.0;1.05124e-63;1.0;2
52.23305;21.25;1.88079e-63;1.0;2
53.37523;21.5;3.38461e-63;1.0;2
54.5253;21.75;6.10821e-63;1.0;2
55.68474;22.0;1.10631e-62;1.0;2
56.85935;22.25;2.01682e-62;1.0;2
58.04364;22.5;3.69023e-62;1.0;2
59.23476;22.75;6.76689e-62;1.0;2
60.43665;23.0;1.24605e-61;1.0;2
61.64896;23.25;2.30354e-61;1.0;2
62.86358;23.5;4.25775e-61;1.0;2
64.0847;23.75;7.88497e-61;1.0;2
65.30787;24.0;1.45974e-60;1.0;2
66.53528;24.25;2.70445e-60;1.0;2
67.76738;24.5;5.01536e-60;1.0;2
69.00398;24.75;9.30892e-60;1.0;2
70.24448;25.0;1.72875e-59;1.0;2
71.48621;25.25;3.20788e-59;1.0;2
72.72937;25.5;5.94838e-59;1.0;2
73.97395;25.75;1.10223e-58;1.0;2
75.22398;26.0;2.04501e-58;1.0;2
76.46965;26.25;3.78063e-58;1.0;2
77.71669;26.5;6.98409e-58;1.0;2
78.96561;26.75;1.28955e-57;1.0;2
80.21691;27.0;2.38039e-57;1.0;2
81.47146;27.25;4.39468e-57;1.0;2
82.72618;27.5;8.10244e-57;1.0;2
83.9838;27.75;1.49379e-56;1.0;2
85.24469;28.0;2.75437e-56;1.0;2
86.50762;28.25;5.07636e-56;1.0;2
87.77336;28.5;9.35483e-56;1.0;2
89.03755;28.75;1.72012e-55;1.0;2
90.30329;29.0;3.16059e-55;1.0;2
91.5698;29.25;5.80097e-55;1.0;2
92.84121;29.5;1.06564e-54;1.0;2
94.11325;29.75;1.95529e-54;1.0;2
95.38379;30.0;3.57977e-54;1.0;2
96.65528;30.25;6.54718e-54;1.0;2
97.92917;30.5;1.19702e-53;1.0;2
99.20502;30.75;2.1873e-53;1.0;2
100.482;31.0;3.99273e-53;1.0;2
101.761;31.25;7.28542e-53;1.0;2
103.0401;31.5;1.3273e-52;1.0;2
104.318;31.75;2.41323e-52;1.0;2
105.595;32.0;4.3789e-52;1.0;2
106.873;32.25;7.93771e-52;1.0;2
108.15;32.5;1.43604e-51;1.0;2
109.424;32.75;2.59117e-51;1.0;2
110.698;33.0;4.66813e-51;1.0;2
111.973;33.25;8.39823e-51;1.0;2
113.248;33.5;1.50899e-50;1.0;2
114.5243;33.75;2.70938e-50;1.0;2
115.8;34.0;4.85521e-50;1.0;2
117.071;34.25;8.66808e-50;1.0;2
118.344;34.5;1.54734e-49;1.0;2
119.615;34.75;2.75473e-49;1.0;2
120.886;35.0;4.89736e-49;1.0;2
122.16;35.25;8.70407e-49;1.0;2
123.434;35.5;1.54482e-48;1.0;2
124.708;35.75;2.73733e-48;1.0;2
125.984;36.0;4.84883e-48;1.0;2
127.259;36.25;8.56875e-48;1.0;2
128.536;36.5;1.51388e-47;1.0;2
129.815;36.75;2.67312e-47;1.0;2
131.096;37.0;4.71536e-47;1.0;2
132.375;37.25;8.30308e-47;1.0;2
133.6561;37.5;1.46047e-46;1.0;2
134.935;37.75;2.56259e-46;1.0;2
136.213;38.0;4.48882e-46;1.0;2
137.494;38.25;7.86128e-46;1.0;2
138.773;38.5;1.37367e-45;1.0;2
140.055;38.75;2.39887e-45;1.0;2
141.336;39.0;4.18293e-45;1.0;2
142.619;39.25;7.28671e-45;1.0;2
143.902;39.5;1.26777e-44;1.0;2
145.189;39.75;2.20653e-44;1.0;2
146.477;40.0;3.8348e-44;1.0;2
147.764;40.25;6.65171e-44;1.0;2
149.052;40.5;1.15273e-43;1.0;2
150.3408;40.75;1.99508e-43;1.0;2
151.63;41.0;3.44805e-43;1.0;2
152.914;41.25;5.9391e-43;1.0;2
154.201;41.5;1.02259e-42;1.0;2
155.491;41.75;1.75945e-42;1.0;2
156.779;42.0;3.02141e-42;1.0;2
158.066;42.25;5.17776e-42;1.0;2
159.352;42.5;8.85786e-42;1.0;2
160.638;42.75;1.51261e-41;1.0;2
161.923;43.0;2.57931e-41;1.0;2
163.2086;43.25;4.39044e-41;1.0;2
164.4928;43.5;7.45896e-41;1.0;2
165.782;43.75;1.26766e-40;1.0;2
167.069;44.0;2.15032e-40;1.0;2
168.35;44.25;3.63102e-40;1.0;2
169.63;44.5;6.12191e-40;1.0;2
170.916;44.75;1.03276e-39;1.0;2
172.2;45.0;1.73871e-39;1.0;2
173.484;45.25;2.92301e-39;1.0;2
174.772;45.5;4.91311e-39;1.0;2
176.055;45.75;8.23256e-39;1.0;2
177.339;46.0;1.37751e-38;1.0;2
178.6242;46.25;2.30229e-38;1.0;2
179.907;46.5;3.83954e-38;1.0;2
181.188;46.75;6.38781e-38;1.0;2
182.47;47.0;1.0615e-37;1.0;2
183.751;47.25;1.76071e-37;1.0;2
185.034;47.5;2.91883e-37;1.0;2
186.318;47.75;4.83195e-37;1.0;2
187.6;48.0;7.98209e-37;1.0;2
188.884;48.25;1.31758e-36;1.0;2
190.169;48.5;2.17296e-36;1.0;2
191.455;48.75;3.57898e-36;1.0;2
192.741;49.0;5.88452e-36;1.0;2
194.027;49.25;9.66489e-36;1.0;2
195.314;49.5;1.58475e-35;1.0;2
196.596;49.75;2.59093e-35;1.0;2
197.878;50.0;4.22896e-35;1.0;2
199.164;50.25;6.90166e-35;1.0;2
200.448;50.5;1.12373e-34;1.0;2
201.731;50.75;1.82698e-34;1.0;2
203.018;51.0;2.96891e-34;1.0;2
204.303;51.25;4.81578e-34;1.0;2
205.589;51.5;7.80023e-34;1.0;2
206.875;51.75;1.26164e-33;1.0;2
208.16;52.0;2.03636e-33;1.0;2
209.443;52.25;3.28063e-33;1.0;2
210.727;52.5;5.27686e-33;1.0;2
212.011;52.75;8.47719e-33;1.0;2
213.2936;53.0;1.35912e-32;1.0;2
214.5738;53.25;2.17374e-32;1.0;2
215.857;53.5;3.47512e-32;1.0;2
217.1376;53.75;5.54228e-32;1.0;2
218.417;54.0;8.82153e-32;1.0;2
219.696;54.25;1.40193e-31;1.0;2
220.974;54.5;2.22376e-31;1.0;2
222.254;54.75;3.52383e-31;1.0;2
223.532;55.0;5.57391e-31;1.0;2
224.81;55.25;8.80102e-31;1.0;2
226.091;55.5;1.38883e-30;1.0;2
227.368;55.75;2.18633e-30;1.0;2
228.648;56.0;3.43838e-30;1.0;2
229.928;56.25;5.40119e-30;1.0;2
231.206;56.5;8.46663e-30;1.0;2
232.486;56.75;1.32552e-29;1.0;2
233.765;57.0;2.07245e-29;1.0;2
235.045;57.25;3.23516e-29;1.0;2
236.323;57.5;5.0406e-29;1.0;2
237.601;57.75;7.83996e-29;1.0;2
238.878;58.0;1.21738e-28;1.0;2
240.155;58.25;1.88778e-28;1.0;2
241.433;58.5;2.92365e-28;1.0;2
242.71;58.75;4.51901e-28;1.0;2
243.985;59.0;6.97073e-28;1.0;2
245.262;59.25;1.07418e-27;1.0;2
246.539;59.5;1.65276e-27;1.0;2
247.816;59.75;2.53985e-27;1.0;2
249.096;60.0;3.90086e-27;1.0;2
250.374;60.25;5.97828e-27;1.0;2
251.654;60.5;9.15403e-27;1.0;2
252.931;60.75;1.39808e-26;1.0;2
254.205;61.0;2.13042e-26;1.0;2
255.482;61.25;3.24391e-26;1.0;2
256.759;61.5;4.93341e-26;1.0;2
258.036;61.75;7.48879e-26;1.0;2
259.311;62.0;1.13458e-25;1.0;2
260.5913;62.25;1.71958e-25;1.0;2
261.867;62.5;2.59829e-25;1.0;2
263.142;62.75;3.9188e-25;1.0;2
264.4204;63.0;5.90825e-25;1.0;2
265.7;63.25;8.89697e-25;1.0;2
266.978;63.5;1.33726e-24;1.0;2
268.256;63.75;2.00714e-24;1.0;2
269.535;64.0;3.00888e-24;1.0;2
270.812;64.25;4.50017e-24;1.0;2
272.086;64.5;6.71515e-24;1.0;2
273.359;64.75;1.00026e-23;1.0;2
274.632;65.0;1.48747e-23;1.0;2
275.906;65.25;2.20988e-23;1.0;2
277.181;65.5;3.27907e-23;1.0;2
278.456;65.75;4.85742e-23;1.0;2
279.729;66.0;7.18222e-23;1.0;2
281.006;66.25;1.06155e-22;1.0;2
282.284;66.5;1.5673e-22;1.0;2
283.56;66.75;2.30859e-22;1.0;2
284.836;67.0;3.39636e-22;1.0;2
286.111;67.25;4.9874e-22;1.0;2
287.388;67.5;7.31587e-22;1.0;2
288.666;67.75;1.07197e-21;1.0;2
289.94;68.0;1.56674e-21;1.0;2
291.213;68.25;2.28539e-21;1.0;2
292.485;68.5;3.32809e-21;1.0;2
293.757;68.75;4.8391e-21;1.0;2
295.031;69.0;7.03029e-21;1.0;2
296.307;69.25;1.02051e-20;1.0;2
297.582;69.5;1.47842e-20;1.0;2
298.8559;69.75;2.13813e-20;1.0;2
300.129;70.0;3.08696e-20;1.0;2
301.402;70.25;4.44982e-20;1.0;2
302.675;70.5;6.40548e-20;1.0;2
303.947;70.75;9.20399e-20;1.0;2
305.218;71.0;1.32017e-19;1.0;2
306.486;71.25;1.88944e-19;1.0;2
307.755;71.5;2.70046e-19;1.0;2
309.028;71.75;3.85812e-19;1.0;2
310.299;72.0;5.50051e-19;1.0;2
311.568;72.25;7.82754e-19;1.0;2
312.838;72.5;1.11247e-18;1.0;2
314.107;72.75;1.57851e-18;1.0;2
315.373;73.0;2.23454e-18;1.0;2
316.642;73.25;3.16104e-18;1.0;2
317.912;73.5;4.4663e-18;1.0;2
319.1809;73.75;6.2994e-18;1.0;2
320.449;74.0;8.86996e-18;1.0;2
321.7193;74.25;1.2478e-17;1.0;2
322.988;74.5;1.752e-17;1.0;2
324.258;74.75;2.4573e-17;1.0;2
325.526;75.0;3.43979e-17;1.0;2
326.7946;75.25;4.80811e-17;1.0;2
328.063;75.5;6.71099e-17;1.0;2
329.332;75.75;9.35408e-17;1.0;2
330.599;76.0;1.30138e-16;1.0;2
331.868;76.25;1.8084e-16;1.0;2
333.139;76.5;2.51143e-16;1.0;2
334.409;76.75;3.48075e-16;1.0;2
335.672;77.0;4.80935e-16;1.0;2
336.935;77.25;6.63465e-16;1.0;2
338.201;77.5;9.14425e-16;1.0;2
339.467;77.75;1.25887e-15;1.0;2
340.734;78.0;1.73093e-15;1.0;2
342.001;78.25;2.37624e-15;1.0;2
343.267;78.5;3.25657e-15;1.0;2
344.533;78.75;4.45636e-15;1.0;2
345.801;79.0;6.09218e-15;1.0;2
347.068;79.25;8.31495e-15;1.0;2
348.3319;79.5;1.13234e-14;1.0;2
349.596;79.75;1.53996e-14;1.0;2
350.862;80.0;2.09174e-14;1.0;2
352.1271;80.25;2.83688e-14;1.0;2
353.392;80.5;3.84127e-14;1.0;2
354.658;80.75;5.19548e-14;1.0;2
355.923;81.0;7.0154e-14;1.0;2
357.19;81.25;9.46176e-14;1.0;2
358.457;81.5;1.27443e-13;1.0;2
359.7225;81.75;1.7135e-13;1.0;2
360.985;82.0;2.29886e-13;1.0;2
362.2481;82.25;3.07971e-13;1.0;2
363.513;82.5;4.12209e-13;1.0;2
364.776;82.75;5.50631e-13;1.0;2
366.039;83.0;7.34469e-13;1.0;2
367.303;83.25;9.78422e-13;1.0;2
368.565;83.5;1.30091e-12;1.0;2
369.826;83.75;1.7269e-12;1.0;2
371.086;84.0;2.28875e-12;1.0;2
372.3491;84.25;3.03045e-12;1.0;2
373.6113;84.5;4.00625e-12;1.0;2
374.87;84.75;5.28492e-12;1.0;2
376.134;85.0;6.96886e-12;1.0;2
377.3972;85.25;9.17404e-12;1.0;2
378.66;85.5;1.20589e-11;1.0;2
379.921;85.75;1.58215e-11;1.0;2
381.179;86.0;2.0716e-11;1.0;2
382.438;86.25;2.70909e-11;1.0;2
383.7;86.5;3.53925e-11;1.0;2
384.959;86.75;4.61476e-11;1.0;2
386.2178;87.0;6.0087e-11;1.0;2
387.478;87.25;7.81457e-11;1.0;2
388.738;87.5;1.01462e-10;1.0;2
389.998;87.75;1.31558e-10;1.0;2
391.254;88.0;1.70202e-10;1.0;2
392.51;88.25;2.19852e-10;1.0;2
393.773;88.5;2.8399e-10;1.0;2
395.0354;88.75;3.66261e-10;1.0;2
396.297;89.0;4.71617e-10;1.0;2
397.556;89.25;6.06104e-10;1.0;2
398.817;89.5;7.78018e-10;1.0;2
400.079;89.75;9.97462e-10;1.0;2
401.34;90.0;1.27672e-09;1.0;2
402.599;90.25;1.63114e-09;1.0;2
403.858;90.5;2.08126e-09;1.0;2
405.119;90.75;2.65237e-09;1.0;2
406.379;91.0;3.37447e-09;1.0;2
407.638;91.25;4.28649e-09;1.0;2
408.901;91.5;5.44114e-09;1.0;2
410.16;91.75;6.89091e-09;1.0;2
411.418;92.0;8.71333e-09;1.0;2
412.676;92.25;1.10021e-08;1.0;2
413.935;92.5;1.38742e-08;1.0;2
415.192;92.75;1.74624e-08;1.0;2
416.4495;93.0;2.19524e-08;1.0;2
417.706;93.25;2.75508e-08;1.0;2
418.9638;93.5;3.45336e-08;1.0;2
420.221;93.75;4.32216e-08;1.0;2
421.478;94.0;5.40089e-08;1.0;2
422.7334;94.25;6.73789e-08;1.0;2
423.99;94.5;8.39502e-08;1.0;2
425.248;94.75;1.04477e-07;1.0;2
426.506;95.0;1.29836e-07;1.0;2
427.762;95.25;1.61061e-07;1.0;2
429.019;95.5;1.99521e-07;1.0;2
430.275;95.75;2.46768e-07;1.0;2
431.534;96.0;3.04971e-07;1.0;2
432.795;96.25;3.76432e-07;1.0;2
434.053;96.5;4.63729e-07;1.0;2
435.313;96.75;5.70561e-07;1.0;2
436.573;97.0;7.01149e-07;1.0;2
437.835;97.25;8.60562e-07;1.0;2
439.093;97.5;1.05391e-06;1.0;2
440.3477;97.75;1.28831e-06;1.0;2
441.604;98.0;1.57301e-06;1.0;2
442.859;98.25;1.91718e-06;1.0;2
444.117;98.5;2.33477e-06;1.0;2
445.377;98.75;2.83961e-06;1.0;2
446.638;99.0;3.44933e-06;1.0;2
447.8979;99.25;4.18346e-06;1.0;2
449.159;99.5;5.06726e-06;1.0;2
450.419;99.75;6.12751e-06;1.0;2
451.676;100.0;7.39619e-06;1.0;2
452.933;100.25;8.91424e-06;1.0;2
454.189;100.5;1.07259e-05;1.0;2
455.4418;100.75;1.28818e-05;1.0;2
456.696;101.0;1.54526e-05;1.0;2
457.9502;101.25;1.85085e-05;1.0;2
459.202;101.5;2.21296e-05;1.0;2
460.455;101.75;2.64281e-05;1.0;2
461.713;102.0;3.1534e-05;1.0;2
462.968;102.25;3.75585e-05;1.0;2
464.222;102.5;4.46627e-05;1.0;2
465.4741;102.75;5.30228e-05;1.0;2
466.727;103.0;6.28634e-05;1.0;2
467.98;103.25;7.4421e-05;1.0;2
469.233;103.5;8.79756e-05;1.0;2
470.486;103.75;0.000103861;1.0;2
471.739;104.0;0.000122427;1.0;2
472.992;104.25;0.000144108;1.0;2
474.243;104.5;0.00016935;1.0;2
475.4947;104.75;0.000198732;1.0;2
476.747;105.0;0.000232895;1.0;2
477.9978;105.25;0.0002725;1.0;2
479.249;105.5;0.000318386;1.0;2
480.501;105.75;0.000371529;1.0;2
481.753;106.0;0.000432886;1.0;2
483.006;106.25;0.000503695;1.0;2
484.256;106.5;0.000585128;1.0;2
485.507;106.75;0.000678742;1.0;2
486.76;107.0;0.000786456;1.0;2
488.013;107.25;0.000909882;1.0;2
489.266;107.5;0.00105118;1.0;2
490.52;107.75;0.00121285;1.0;2
491.772;108.0;0.00139707;1.0;2
493.024;108.25;0.00160688;1.0;2
494.278;108.5;0.00184596;1.0;2
495.531;108.75;0.00211738;1.0;2
496.782;109.0;0.00242474;1.0;2
498.034;109.25;0.00277324;1.0;2
499.287;109.5;0.00316728;1.0;2
500.541;109.75;0.0036125;1.0;2
501.7957;110.0;0.00411467;1.0;2
503.048;110.25;0.00467899;1.0;2
504.301;110.5;0.00531294;1.0;2
505.554;110.75;0.00602429;1.0;2
506.804;111.0;0.00681972;1.0;2
508.055;111.25;0.00770892;1.0;2
509.307;111.5;0.00870317;1.0;2
510.562;111.75;0.00981363;1.0;2
511.798;112.0;0.0110307;1.0;2
513.034;112.25;0.0123816;1.0;2
514.314;112.5;0.0139348;1.0;2
515.603;112.75;0.0156704;1.0;2
516.891;113.0;0.0175957;1.0;2
518.177;113.25;0.019723;1.0;2
519.459;113.5;0.0220675;1.0;2
520.74;113.75;0.0246498;1.0;2
522.021;114.0;0.0274943;1.0;2
523.318;114.25;0.0306613;1.0;2
524.658;114.5;0.0342615;1.0;2
526.025;114.75;0.0383041;1.0;2
527.4373;115.0;0.0429055;1.0;2
528.914;115.25;0.0482163;1.0;2
530.34;115.5;0.0538644;1.0;2
531.691;115.75;0.0597227;1.0;2
533;116.0;0.0658973;1.0;2
534.277;116.25;0.0724286;1.0;2
535.532;116.5;0.0793616;1.0;2
536.77;116.75;0.0867301;1.0;2
537.996;117.0;0.0945716;1.0;2
539.218;117.25;0.102949;1.0;2
540.437;117.5;0.111891;1.0;2
541.654;117.75;0.121431;1.0;2
542.871;118.0;0.131603;1.0;2
544.086;118.25;0.142417;1.0;2
545.2994;118.5;0.153898;1.0;2
546.514;118.75;0.166092;1.0;2
547.731;119.0;0.179032;1.0;2
548.947;119.25;0.192716;1.0;2
550.163;119.5;0.207155;1.0;2
551.381;119.75;0.222403;1.0;2
552.601;120.0;0.238477;1.0;2
553.823;120.25;0.255395;1.0;2
555.046;120.5;0.273154;1.0;2
556.2706;120.75;0.291769;1.0;2
557.497;121.0;0.311257;1.0;2
558.723;121.25;0.331578;1.0;2
559.947;121.5;0.352715;1.0;2
561.172;121.75;0.374692;1.0;2
562.398;122.0;0.397512;1.0;2
563.624;122.25;0.42115;1.0;2
564.8499;122.5;0.445573;1.0;2
566.077;122.75;0.470792;1.0;2
567.305;123.0;0.496756;1.0;2
568.536;123.25;0.523507;1.0;2
569.766;123.5;0.550919;1.0;2
570.995;123.75;0.578945;1.0;2
572.223;124.0;0.607502;1.0;2
573.451;124.25;0.636605;1.0;2
574.685;124.5;0.666327;1.0;2
575.917;124.75;0.696424;1.0;2
577.149;125.0;0.726855;1.0;2
578.389;125.25;0.757772;1.0;2
579.631;125.5;0.788947;1.0;2
580.8682;125.75;0.820115;1.0;2
582.1069;126.0;0.851359;1.0;2
583.346;126.25;0.882556;1.0;2
584.581;126.5;0.913519;1.0;2
585.816;126.75;0.944242;1.0;2
587.052;127.0;0.97467;1.0;2
588.2876;127.25;1.00465;1.0;2
589.524;127.5;1.03411;1.0;2
590.7589;127.75;1.06294;1.0;2
591.998;128.0;1.09114;1.0;2
593.24;128.25;1.11855;1.0;2
594.481;128.5;1.14503;1.0;2
595.723;128.75;1.1705;1.0;2
596.964;129.0;1.19484;1.0;2
598.207;129.25;1.21799;1.0;2
599.451;129.5;1.23985;1.0;2
600.693;129.75;1.26029;1.0;2
601.936;130.0;1.27926;1.0;2
603.178;130.25;1.29668;1.0;2
604.421;130.5;1.31249;1.0;2
605.666;130.75;1.32663;1.0;2
606.909;131.0;1.339;1.0;2
608.15;131.25;1.34957;1.0;2
609.393;131.5;1.35831;1.0;2
610.636;131.75;1.36517;1.0;2
611.878;132.0;1.37013;1.0;2
613.123;132.25;1.37317;1.0;2
614.366;132.5;1.37426;1.0;2
615.6071;132.75;1.37341;1.0;2
616.8482;133.0;1.37063;1.0;2
618.089;133.25;1.36592;1.0;2
619.3303;133.5;1.35931;1.0;2
620.572;133.75;1.35082;1.0;2
621.815;134.0;1.34048;1.0;2
623.054;134.25;1.32838;1.0;2
624.294;134.5;1.31453;1.0;2
625.534;134.75;1.29899;1.0;2
626.776;135.0;1.2818;1.0;2
628.015;135.25;1.2631;1.0;2
629.254;135.5;1.24292;1.0;2
630.492;135.75;1.22136;1.0;2
631.726;136.0;1.19856;1.0;2
632.962;136.25;1.17453;1.0;2
634.196;136.5;1.14938;1.0;2
635.431;136.75;1.12322;1.0;2
636.6665;137.0;1.09608;1.0;2
637.901;137.25;1.06813;1.0;2
639.138;137.5;1.0394;1.0;2
640.374;137.75;1.01003;1.0;2
641.611;138.0;0.980106;1.0;2
642.848;138.25;0.949722;1.0;2
644.087;138.5;0.918966;1.0;2
645.323;138.75;0.888018;1.0;2
646.558;139.0;0.856927;1.0;2
647.793;139.25;0.825789;1.0;2
649.027;139.5;0.794666;1.0;2
650.261;139.75;0.763673;1.0;2
651.493;140.0;0.732918;1.0;2
652.725;140.25;0.702417;1.0;2
653.958;140.5;0.672241;1.0;2
655.188;140.75;0.64253;1.0;2
656.4166;141.0;0.613303;1.0;2
657.646;141.25;0.584585;1.0;2
658.874;141.5;0.556472;1.0;2
660.101;141.75;0.528996;1.0;2
661.33;142.0;0.502151;1.0;2
662.559;142.25;0.476009;1.0;2
663.787;142.5;0.450632;1.0;2
665.017;142.75;0.425963;1.0;2
666.247;143.0;0.402087;1.0;2
667.4744;143.25;0.379084;1.0;2
668.703;143.5;0.356879;1.0;2
669.931;143.75;0.335518;1.0;2
671.154;144.0;0.31508;1.0;2
672.376;144.25;0.295505;1.0;2
673.597;144.5;0.276769;1.0;2
674.8184;144.75;0.258876;1.0;2
676.039;145.0;0.241815;1.0;2
677.258;145.25;0.225587;1.0;2
678.477;145.5;0.210169;1.0;2
679.697;145.75;0.195522;1.0;2
680.915;146.0;0.181666;1.0;2
682.131;146.25;0.168589;1.0;2
683.346;146.5;0.156253;1.0;2
684.56;146.75;0.144634;1.0;2
685.775;147.0;0.133682;1.0;2
686.986;147.25;0.123436;1.0;2
688.196;147.5;0.11382;1.0;2
689.407;147.75;0.104814;1.0;2
690.618;148.0;0.0963863;1.0;2
691.831;148.25;0.0885058;1.0;2
693.043;148.5;0.0811658;1.0;2
694.256;148.75;0.0743261;1.0;2
695.473;149.0;0.0679524;1.0;2
696.694;149.25;0.0620241;1.0;2
697.916;149.5;0.0565311;1.0;2
699.142;149.75;0.0514385;1.0;2
700.371;150.0;0.0467285;1.0;2
701.601;150.25;0.0423874;1.0;2
702.831;150.5;0.0383974;1.0;2
704.06;150.75;0.0347346;1.0;2
705.291;151.0;0.0313763;1.0;2
706.526;151.25;0.0282922;1.0;2
707.761;151.5;0.0254744;1.0;2
708.999;151.75;0.0229004;1.0;2
710.236;152.0;0.0205605;1.0;2
711.471;152.25;0.0184356;1.0;2
712.7091;152.5;0.0165037;1.0;2
713.945;152.75;0.014756;1.0;2
715.181;153.0;0.0131754;1.0;2
716.416;153.25;0.0117478;1.0;2
717.649;153.5;0.0104622;1.0;2
718.885;153.75;0.00930205;1.0;2
720.121;154.0;0.0082594;1.0;2
721.3571;154.25;0.00732282;1.0;2
722.592;154.5;0.00648412;1.0;2
723.827;154.75;0.00573374;1.0;2
725.061;155.0;0.00506307;1.0;2
726.296;155.25;0.00446467;1.0;2
727.532;155.5;0.00393089;1.0;2
728.769;155.75;0.0034556;1.0;2
730.006;156.0;0.00303374;1.0;2
731.242;156.25;0.00265989;1.0;2
732.478;156.5;0.00232877;1.0;2
733.712;156.75;0.00203646;1.0;2
734.95;157.0;0.00177768;1.0;2
736.187;157.25;0.00154981;1.0;2
737.423;157.5;0.00134926;1.0;2
738.661;157.75;0.00117279;1.0;2
739.898;158.0;0.00101812;1.0;2
741.135;158.25;0.000882605;1.0;2
742.371;158.5;0.000764168;1.0;2
743.607;158.75;0.000660687;1.0;2
744.842;159.0;0.000570481;1.0;2
746.0747;159.25;0.00049203;1.0;2
747.308;159.5;0.000423778;1.0;2
748.542;159.75;0.000364409;1.0;2
749.774;160.0;0.000313023;1.0;2
751.007;160.25;0.000268483;1.0;2
752.241;160.5;0.000229919;1.0;2
753.474;160.75;0.000196656;1.0;2
754.709;161.0;0.000167912;1.0;2
755.944;161.25;0.000143167;1.0;2
757.179;161.5;0.000121921;1.0;2
758.412;161.75;0.000103691;1.0;2
759.647;162.0;8.80533e-05;1.0;2
760.88;162.25;7.46753e-05;1.0;2
762.116;162.5;6.32246e-05;1.0;2
763.351;162.75;5.34618e-05;1.0;2
764.587;163.0;4.51365e-05;1.0;2
765.823;163.25;3.8054e-05;1.0;2
767.059;163.5;3.20412e-05;1.0;2
768.295;163.75;2.69372e-05;1.0;2
769.532;164.0;2.2613e-05;1.0;2
770.77;164.25;1.8954e-05;1.0;2
772.008;164.5;1.58628e-05;1.0;2
773.247;164.75;1.32572e-05;1.0;2
774.484;165.0;1.10651e-05;1.0;2
775.722;165.25;9.22236e-06;1.0;2
776.962;165.5;7.67348e-06;1.0;2
778.1998;165.75;6.37806e-06;1.0;2
779.436;166.0;5.29492e-06;1.0;2
780.671;166.25;4.39023e-06;1.0;2
781.905;166.5;3.6359e-06;1.0;2
783.14;166.75;3.00647e-06;1.0;2
784.3755;167.0;2.48217e-06;1.0;2
785.609;167.25;2.04712e-06;1.0;2
786.842;167.5;1.68628e-06;1.0;2
788.077;167.75;1.38656e-06;1.0;2
789.312;168.0;1.13837e-06;1.0;2
790.548;168.25;9.33386e-07;1.0;2
791.782;168.5;7.64321e-07;1.0;2
793.017;168.75;6.24951e-07;1.0;2
794.255;169.0;5.1004e-07;1.0;2
795.493;169.25;4.15695e-07;1.0;2
796.729;169.5;3.38391e-07;1.0;2
797.966;169.75;2.75067e-07;1.0;2
799.2;170.0;2.23383e-07;1.0;2
800.435;170.25;1.81122e-07;1.0;2
801.672;170.5;1.46627e-07;1.0;2
802.905;170.75;1.18597e-07;1.0;2
804.141;171.0;9.57354e-08;1.0;2
805.379;171.25;7.71609e-08;1.0;2
806.613;171.5;6.2138e-08;1.0;2
807.846;171.75;4.99848e-08;1.0;2
809.08;172.0;4.01394e-08;1.0;2
810.312;172.25;3.22037e-08;1.0;2
811.544;172.5;2.57998e-08;1.0;2
812.779;172.75;2.06296e-08;1.0;2
814.012;173.0;1.6476e-08;1.0;2
815.245;173.25;1.31437e-08;1.0;2
816.475;173.5;1.04754e-08;1.0;2
817.709;173.75;8.33152e-09;1.0;2
818.944;174.0;6.61563e-09;1.0;2
820.177;174.25;5.24742e-09;1.0;2
821.41;174.5;4.15679e-09;1.0;2
822.643;174.75;3.28801e-09;1.0;2
823.877;175.0;2.5968e-09;1.0;2
825.111;175.25;2.0479e-09;1.0;2
826.346;175.5;1.61262e-09;1.0;2
827.58;175.75;1.26829e-09;1.0;2
828.815;176.0;9.95819e-10;1.0;2
830.051;176.25;7.80808e-10;1.0;2
831.283;176.5;6.11745e-10;1.0;2
832.518;176.75;4.78315e-10;1.0;2
833.752;177.0;3.73585e-10;1.0;2
834.987;177.25;2.9128e-10;1.0;2
836.222;177.5;2.2683e-10;1.0;2
837.455;177.75;1.76447e-10;1.0;2
838.691;178.0;1.36992e-10;1.0;2
839.927;178.25;1.06198e-10;1.0;2
841.162;178.5;8.22252e-11;1.0;2
842.396;178.75;6.35939e-11;1.0;2
843.63;179.0;4.91189e-11;1.0;2
844.866;179.25;3.78692e-11;1.0;2
846.101;179.5;2.91565e-11;1.0;2
847.336;179.75;2.24234e-11;1.0;2
848.569;180.0;1.72229e-11;1.0;2
849.801;180.25;1.32158e-11;1.0;2
851.034;180.5;1.0124e-11;1.0;2
852.2652;180.75;7.74835e-12;1.0;2
853.5;181.0;5.9174e-12;1.0;2
854.7352;181.25;4.51166e-12;1.0;2
855.969;181.5;3.43617e-12;1.0;2
857.203;181.75;2.61374e-12;1.0;2
858.438;182.0;1.9848e-12;1.0;2
859.672;182.25;1.50535e-12;1.0;2
860.904;182.5;1.14054e-12;1.0;2
862.139;182.75;8.62602e-13;1.0;2
863.372;183.0;6.51599e-13;1.0;2
864.607;183.25;4.91351e-13;1.0;2
865.842;183.5;3.69985e-13;1.0;2
867.076;183.75;2.78282e-13;1.0;2
868.312;184.0;2.08919e-13;1.0;2
869.548;184.25;1.56634e-13;1.0;2
870.783;184.5;1.17293e-13;1.0;2
872.0177;184.75;8.77097e-14;1.0;2
873.2523;185.0;6.55017e-14;1.0;2
874.487;185.25;4.88514e-14;1.0;2
875.721;185.5;3.6387e-14;1.0;2
876.955;185.75;2.70613e-14;1.0;2
878.1884;186.0;2.01025e-14;1.0;2
879.421;186.25;1.49141e-14;1.0;2
880.653;186.5;1.10529e-14;1.0;2
881.887;186.75;8.17614e-15;1.0;2
883.121;187.0;6.03798e-15;1.0;2
884.353;187.25;4.45566e-15;1.0;2
885.587;187.5;3.28241e-15;1.0;2
886.822;187.75;2.4139e-15;1.0;2
888.055;188.0;1.77329e-15;1.0;2
889.289;188.25;1.30084e-15;1.0;2
890.521;188.5;9.53158e-16;1.0;2
891.756;188.75;6.97066e-16;1.0;2
892.986;189.0;5.09633e-16;1.0;2
894.216;189.25;3.72122e-16;1.0;2
895.45;189.5;2.71048e-16;1.0;2
896.682;189.75;1.9727e-16;1.0;2
897.912;190.0;1.43427e-16;1.0;2
899.145;190.25;1.04078e-16;1.0;2
900.3779;190.5;7.54077e-17;1.0;2
901.61;190.75;5.45672e-17;1.0;2
902.845;191.0;3.94075e-17;1.0;2
904.0798;191.25;2.84216e-17;1.0;2
905.315;191.5;2.04642e-17;1.0;2
906.55;191.75;1.4716e-17;1.0;2