File: src/data/kinetics/q10/peak_3.txt
#EXPORTTYPE:DATA SINGLE
#FTYPE:ANSI
#IDENTITY:005922
#DECIMAL:POINT
#SEPARATOR:SEMICOLON
#MTYPE:DSC
#PROJECT:
#TEMPCAL:TCALZERO.TCX
#SENSITIVITY:SENSZERO.EXX
#LABORATORY:13
#REMARK:
#SAMPLE:2
#SAMPLE MASS /mg:7.28
#REFERENCE:
#REFERENCE MASS /mg:0
#TYPE OF CRUCIBLE:DSC/TG pan Al2O3
#SAMPLE CRUCIBLE MASS /mg:0
#REFERENCE CRUCIBLE MASS /mg:0
#DSC RANGE /�V:5000
#TG RANGE /mg:5000
#TAU-R:---
#CORR. CODE:020
#EXO:+1
#RANGE:35�C/00:00/35�C/10,0(K/min)/920�C/
#SEGMENT:S1-2/2
#SEG. 1:35�C/00:15/35�C
#SEG. 2:35�C/10,0(K/min)/920�C

##Temp./�C;Time/min;DSC/(uV/mg);Sensit./(uV/mW);Segment
33.98564;0.25;1.32113e-52;1.0;1
34.00776;0.5;1.33274e-52;1.0;1
34.03218;0.75;1.34567e-52;1.0;1
34.05276;1.0;1.35666e-52;1.0;1
34.06923;1.25;1.36552e-52;1.0;1
34.08182;1.5;1.37234e-52;1.0;1
34.09324;1.75;1.37855e-52;1.0;1
34.10847;2.0;1.38687e-52;1.0;1
34.12312;2.25;1.39493e-52;1.0;1
34.13618;2.5;1.40215e-52;1.0;1
34.14771;2.75;1.40855e-52;1.0;1
34.15324;3.0;1.41163e-52;1.0;1
34.15806;3.25;1.41433e-52;1.0;1
34.161;3.5;1.41597e-52;1.0;1
34.16376;3.75;1.41752e-52;1.0;1
34.16953;4.0;1.42075e-52;1.0;1
34.177;4.25;1.42495e-52;1.0;1
34.18312;4.5;1.42841e-52;1.0;1
34.18659;4.75;1.43037e-52;1.0;1
34.18865;5.0;1.43153e-52;1.0;1
34.19218;5.25;1.43353e-52;1.0;1
34.19294;5.5;1.43396e-52;1.0;1
34.19318;5.75;1.4341e-52;1.0;1
34.19524;6.0;1.43527e-52;1.0;1
34.19906;6.25;1.43743e-52;1.0;1
34.20065;6.5;1.43834e-52;1.0;1
34.19976;6.75;1.43783e-52;1.0;1
34.20253;7.0;1.43941e-52;1.0;1
34.20388;7.25;1.44018e-52;1.0;1
34.206;7.5;1.44138e-52;1.0;1
34.20453;7.75;1.44055e-52;1.0;1
34.20118;8.0;1.43864e-52;1.0;1
34.202;8.25;1.43911e-52;1.0;1
34.20176;8.5;1.43897e-52;1.0;1
34.20118;8.75;1.43864e-52;1.0;1
34.20347;9.0;1.43994e-52;1.0;1
34.20265;9.25;1.43948e-52;1.0;1
34.20318;9.5;1.43978e-52;1.0;1
34.20324;9.75;1.43981e-52;1.0;1
34.205;10.0;1.44081e-52;1.0;1
34.20876;10.25;1.44296e-52;1.0;1
34.20871;10.5;1.44293e-52;1.0;1
34.20641;10.75;1.44162e-52;1.0;1
34.20712;11.0;1.44202e-52;1.0;1
34.20765;11.25;1.44232e-52;1.0;1
34.20771;11.5;1.44236e-52;1.0;1
34.20853;11.75;1.44282e-52;1.0;1
34.20588;12.0;1.44131e-52;1.0;1
34.20988;12.25;1.44359e-52;1.0;1
34.20829;12.5;1.44269e-52;1.0;1
34.20865;12.75;1.44289e-52;1.0;1
34.20776;13.0;1.44239e-52;1.0;1
34.20865;13.25;1.44289e-52;1.0;1
34.21177;13.5;1.44467e-52;1.0;1
34.21424;13.75;1.44608e-52;1.0;1
34.21224;14.0;1.44494e-52;1.0;1
34.21053;14.25;1.44397e-52;1.0;1
34.20835;14.5;1.44272e-52;1.0;1
34.209;14.75;1.44309e-52;1.0;1
34.22108;15.0;1.45e-52;1.0;2
34.21049;15.25;1.44394e-52;1.0;2
34.25831;15.5;1.47149e-52;1.0;2
34.4492;15.75;1.58678e-52;1.0;2
34.84544;16.0;1.8556e-52;1.0;2
35.4671;16.25;2.37152e-52;1.0;2
36.30742;16.5;3.30272e-52;1.0;2
37.34251;16.75;4.96344e-52;1.0;2
38.55148;17.0;7.98046e-52;1.0;2
39.90639;17.25;1.35731e-51;1.0;2
41.38813;17.5;2.42284e-51;1.0;2
42.97527;17.75;4.4997e-51;1.0;2
44.65488;18.0;8.64829e-51;1.0;2
46.42406;18.25;1.71769e-50;1.0;2
48.26587;18.5;3.5015e-50;1.0;2
50.19397;18.75;7.36252e-50;1.0;2
52.17875;19.0;1.5783e-49;1.0;2
54.22524;19.25;3.45526e-49;1.0;2
56.32557;19.5;7.70003e-49;1.0;2
58.4711;19.75;1.74063e-48;1.0;2
60.6614;20.0;3.98995e-48;1.0;2
62.89915;20.25;9.2818e-48;1.0;2
65.16764;20.5;2.17715e-47;1.0;2
67.4673;20.75;5.14926e-47;1.0;2
69.7915;21.0;1.22482e-46;1.0;2
72.14683;21.25;2.93684e-46;1.0;2
74.51336;21.5;7.04553e-46;1.0;2
76.90669;21.75;1.70075e-45;1.0;2
79.31675;22.0;4.11533e-45;1.0;2
81.75552;22.25;1.00246e-44;1.0;2
84.20921;22.5;2.44568e-44;1.0;2
86.67746;22.75;5.97463e-44;1.0;2
89.17272;23.0;1.46797e-43;1.0;2
91.68109;23.25;3.60908e-43;1.0;2
94.20287;23.5;8.87916e-43;1.0;2
96.73827;23.75;2.18597e-42;1.0;2
99.28467;24.0;5.38004e-42;1.0;2
101.844;24.25;1.32465e-41;1.0;2
104.41;24.5;3.2541e-41;1.0;2
106.979;24.75;7.97232e-41;1.0;2
109.553;25.0;1.94711e-40;1.0;2
112.126;25.25;4.73556e-40;1.0;2
114.701;25.5;1.14738e-39;1.0;2
117.277;25.75;2.76889e-39;1.0;2
119.853;26.0;6.65251e-39;1.0;2
122.435;26.25;1.59483e-38;1.0;2
125.02;26.5;3.80967e-38;1.0;2
127.605;26.75;9.06499e-38;1.0;2
130.201;27.0;2.15453e-37;1.0;2
132.809;27.25;5.11982e-37;1.0;2
135.416;27.5;1.21071e-36;1.0;2
138.029;27.75;2.85637e-36;1.0;2
140.645;28.0;6.71547e-36;1.0;2
143.2681;28.25;1.57551e-35;1.0;2
145.893;28.5;3.68219e-35;1.0;2
148.522;28.75;8.5757e-35;1.0;2
151.148;29.0;1.98686e-34;1.0;2
153.785;29.25;4.59897e-34;1.0;2
156.42;29.5;1.05889e-33;1.0;2
159.044;29.75;2.41871e-33;1.0;2
161.667;30.0;5.49746e-33;1.0;2
164.299;30.25;1.24762e-32;1.0;2
166.9269;30.5;2.81513e-32;1.0;2
169.547;30.75;6.30915e-32;1.0;2
172.176;31.0;1.41093e-31;1.0;2
174.8;31.25;3.13752e-31;1.0;2
177.423;31.5;6.94409e-31;1.0;2
180.05;31.75;1.53148e-30;1.0;2
182.675;32.0;3.36014e-30;1.0;2
185.301;32.25;7.34433e-30;1.0;2
187.928;32.5;1.59805e-29;1.0;2
190.5591;32.75;3.46619e-29;1.0;2
193.188;33.0;7.47924e-29;1.0;2
195.817;33.25;1.60682e-28;1.0;2
198.4496;33.5;3.43956e-28;1.0;2
201.073;33.75;7.31113e-28;1.0;2
203.7;34.0;1.54858e-27;1.0;2
206.33;34.25;3.26809e-27;1.0;2
208.954;34.5;6.85398e-27;1.0;2
211.578;34.75;1.43114e-26;1.0;2
214.203;35.0;2.97613e-26;1.0;2
216.827;35.25;6.15808e-26;1.0;2
219.4497;35.5;1.2683e-25;1.0;2
222.074;35.75;2.60122e-25;1.0;2
224.6934;36.0;5.30476e-25;1.0;2
227.314;36.25;1.07735e-24;1.0;2
229.938;36.5;2.17999e-24;1.0;2
232.555;36.75;4.38373e-24;1.0;2
235.177;37.0;8.78509e-24;1.0;2
237.791;37.25;1.74955e-23;1.0;2
240.409;37.5;3.47168e-23;1.0;2
243.019;37.75;6.84537e-23;1.0;2
245.6302;38.0;1.34403e-22;1.0;2
248.239;38.25;2.62577e-22;1.0;2
250.8508;38.5;5.11057e-22;1.0;2
253.459;38.75;9.89482e-22;1.0;2
256.066;39.0;1.90641e-21;1.0;2
258.677;39.25;3.66122e-21;1.0;2
261.282;39.5;6.98809e-21;1.0;2
263.892;39.75;1.3297e-20;1.0;2
266.493;40.0;2.51357e-20;1.0;2
269.1;40.25;4.73734e-20;1.0;2
271.702;40.5;8.87779e-20;1.0;2
274.306;40.75;1.65728e-19;1.0;2
276.905;41.0;3.07703e-19;1.0;2
279.505;41.25;5.68837e-19;1.0;2
282.1045;41.5;1.04673e-18;1.0;2
284.701;41.75;1.91656e-18;1.0;2
287.296;42.0;3.49275e-18;1.0;2
289.889;42.25;6.33271e-18;1.0;2
292.484;42.5;1.14391e-17;1.0;2
295.076;42.75;2.05598e-17;1.0;2
297.662;43.0;3.67447e-17;1.0;2
300.255;43.25;6.54778e-17;1.0;2
302.844;43.5;1.16056e-16;1.0;2
305.438;43.75;2.05055e-16;1.0;2
308.025;44.0;3.60187e-16;1.0;2
310.612;44.25;6.29903e-16;1.0;2
313.198;44.5;1.09664e-15;1.0;2
315.785;44.75;1.90126e-15;1.0;2
318.367;45.0;3.27778e-15;1.0;2
320.95;45.25;5.62875e-15;1.0;2
323.53;45.5;9.61749e-15;1.0;2
326.108;45.75;1.63546e-14;1.0;2
328.684;46.0;2.7681e-14;1.0;2
331.2577;46.25;4.66318e-14;1.0;2
333.832;46.5;7.82236e-14;1.0;2
336.403;46.75;1.30562e-13;1.0;2
338.979;47.0;2.17175e-13;1.0;2
341.5496;47.25;3.59374e-13;1.0;2
344.124;47.5;5.92537e-13;1.0;2
346.695;47.75;9.72056e-13;1.0;2
349.266;48.0;1.58796e-12;1.0;2
351.833;48.25;2.58069e-12;1.0;2
354.404;48.5;4.17972e-12;1.0;2
356.966;48.75;6.72898e-12;1.0;2
359.53;49.0;1.07901e-11;1.0;2
362.093;49.25;1.72274e-11;1.0;2
364.655;49.5;2.73775e-11;1.0;2
367.218;49.75;4.33364e-11;1.0;2
369.777;50.0;6.82554e-11;1.0;2
372.336;50.25;1.07043e-10;1.0;2
374.894;50.5;1.67153e-10;1.0;2
377.455;50.75;2.59974e-10;1.0;2
380.012;51.0;4.02445e-10;1.0;2
382.5729;51.25;6.20627e-10;1.0;2
385.131;51.5;9.52686e-10;1.0;2
387.685;51.75;1.455e-09;1.0;2
390.241;52.0;2.2138e-09;1.0;2
392.799;52.25;3.35518e-09;1.0;2
395.351;52.5;5.05749e-09;1.0;2
397.901;52.75;7.58978e-09;1.0;2
400.449;53.0;1.13396e-08;1.0;2
402.999;53.25;1.6872e-08;1.0;2
405.55;53.5;2.50042e-08;1.0;2
408.097;53.75;3.6877e-08;1.0;2
410.638;54.0;5.41122e-08;1.0;2
413.188;54.25;7.91703e-08;1.0;2
415.732;54.5;1.15243e-07;1.0;2
418.2771;54.75;1.67073e-07;1.0;2
420.819;55.0;2.41071e-07;1.0;2
423.368;55.25;3.46764e-07;1.0;2
425.911;55.5;4.96235e-07;1.0;2
428.453;55.75;7.07087e-07;1.0;2
430.995;56.0;1.00329e-06;1.0;2
433.535;56.25;1.41719e-06;1.0;2
436.074;56.5;1.99304e-06;1.0;2
438.611;56.75;2.79058e-06;1.0;2
441.145;57.0;3.88946e-06;1.0;2
443.681;57.25;5.39958e-06;1.0;2
446.2171;57.5;7.46509e-06;1.0;2
448.75;57.75;1.02738e-05;1.0;2
451.286;58.0;1.40851e-05;1.0;2
453.818;58.25;1.9219e-05;1.0;2
456.353;58.5;2.61249e-05;1.0;2
458.884;58.75;3.53491e-05;1.0;2
461.418;59.0;4.76488e-05;1.0;2
463.949;59.25;6.39318e-05;1.0;2
466.477;59.5;8.54009e-05;1.0;2
469.003;59.75;0.000113579;1.0;2
471.529;60.0;0.000150418;1.0;2
474.059;60.25;0.000198467;1.0;2
476.582;60.5;0.0002606;1.0;2
479.109;60.75;0.000340895;1.0;2
481.636;61.0;0.000444088;1.0;2
484.1589;61.25;0.000575871;1.0;2
486.683;61.5;0.000743779;1.0;2
489.207;61.75;0.000956622;1.0;2
491.728;62.0;0.00122491;1.0;2
494.248;62.25;0.00156187;1.0;2
496.768;62.5;0.00198322;1.0;2
499.294;62.75;0.00250924;1.0;2
501.821;63.0;0.00316198;1.0;2
504.348;63.25;0.00396809;1.0;2
506.882;63.5;0.00496187;1.0;2
509.414;63.75;0.00617758;1.0;2
511.946;64.0;0.00765934;1.0;2
514.481;64.25;0.0094588;1.0;2
517.0203;64.5;0.0116367;1.0;2
519.558;64.75;0.0142539;1.0;2
522.098;65.0;0.0173904;1.0;2
524.637;65.25;0.0211267;1.0;2
527.178;65.5;0.02556;1.0;2
529.719;65.75;0.0307961;1.0;2
532.264;66.0;0.0369581;1.0;2
534.819;66.25;0.0441988;1.0;2
537.468;66.5;0.0529674;1.0;2
540.301;66.75;0.0639542;1.0;2
543.182;67.0;0.0770523;1.0;2
545.883;67.25;0.0913066;1.0;2
548.501;67.5;0.10715;1.0;2
551.053;67.75;0.124702;1.0;2
553.563;68.0;0.144168;1.0;2
556.044;68.25;0.165725;1.0;2
558.516;68.5;0.189651;1.0;2
560.9793;68.75;0.216072;1.0;2
563.435;69.0;0.24511;1.0;2
565.888;69.25;0.27692;1.0;2
568.34;69.5;0.311614;1.0;2
570.794;69.75;0.349324;1.0;2
573.249;70.0;0.390078;1.0;2
575.705;70.25;0.433908;1.0;2
578.162;70.5;0.48078;1.0;2
580.618;70.75;0.530601;1.0;2
583.077;71.0;0.583354;1.0;2
585.54;71.25;0.63893;1.0;2
588.002;71.5;0.697023;1.0;2
590.47;71.75;0.757545;1.0;2
592.939;72.0;0.820095;1.0;2
595.411;72.25;0.884369;1.0;2
597.889;72.5;0.950031;1.0;2
600.366;72.75;1.01649;1.0;2
602.842;73.0;1.08324;1.0;2
605.318;73.25;1.14974;1.0;2
607.795;73.5;1.2155;1.0;2
610.269;73.75;1.27983;1.0;2
612.752;74.0;1.34243;1.0;2
615.234;74.25;1.40241;1.0;2
617.716;74.5;1.45921;1.0;2
620.198;74.75;1.51224;1.0;2
622.685;75.0;1.561;1.0;2
625.172;75.25;1.60486;1.0;2
627.656;75.5;1.64328;1.0;2
630.145;75.75;1.67591;1.0;2
632.631;76.0;1.70229;1.0;2
635.12;76.25;1.72217;1.0;2
637.608;76.5;1.73525;1.0;2
640.0961;76.75;1.74139;1.0;2
642.586;77.0;1.74053;1.0;2
645.073;77.25;1.73266;1.0;2
647.562;77.5;1.71788;1.0;2
650.051;77.75;1.69637;1.0;2
652.538;78.0;1.66841;1.0;2
655.0239;78.25;1.63433;1.0;2
657.509;78.5;1.59453;1.0;2
659.994;78.75;1.54944;1.0;2
662.477;79.0;1.49965;1.0;2
664.953;79.25;1.44579;1.0;2
667.435;79.5;1.38815;1.0;2
669.913;79.75;1.32759;1.0;2
672.393;80.0;1.26456;1.0;2
674.873;80.25;1.19968;1.0;2
677.351;80.5;1.13364;1.0;2
679.8299;80.75;1.06695;1.0;2
682.307;81.0;1.00022;1.0;2
684.783;81.25;0.93393;1.0;2
687.259;81.5;0.868565;1.0;2
689.732;81.75;0.804636;1.0;2
692.207;82.0;0.742421;1.0;2
694.679;82.25;0.682347;1.0;2
697.15;82.5;0.624646;1.0;2
699.622;82.75;0.56955;1.0;2
702.093;83.0;0.517281;1.0;2
704.56;83.25;0.468;1.0;2
707.031;83.5;0.421685;1.0;2
709.502;83.75;0.378425;1.0;2
711.974;84.0;0.338264;1.0;2
714.4421;84.25;0.301202;1.0;2
716.905;84.5;0.267208;1.0;2
719.3678;84.75;0.236126;1.0;2
721.823;85.0;0.207914;1.0;2
724.29;85.25;0.182245;1.0;2
726.768;85.5;0.159006;1.0;2
729.251;85.75;0.138147;1.0;2
731.7324;86.0;0.119548;1.0;2
734.207;86.25;0.103081;1.0;2
736.677;86.5;0.0885582;1.0;2
739.14;86.75;0.0758094;1.0;2
741.597;87.0;0.0646674;1.0;2
744.053;87.25;0.0549508;1.0;2
746.505;87.5;0.0465229;1.0;2
748.954;87.75;0.0392436;1.0;2
751.4;88.0;0.0329783;1.0;2
753.854;88.25;0.0275925;1.0;2
756.305;88.5;0.0229994;1.0;2
758.766;88.75;0.0190805;1.0;2
761.228;89.0;0.0157672;1.0;2
763.697;89.25;0.0129706;1.0;2
766.169;89.5;0.0106243;1.0;2
768.649;89.75;0.00866246;1.0;2
771.13;90.0;0.00703456;1.0;2
773.611;90.25;0.00568935;1.0;2
776.092;90.5;0.00458299;1.0;2
778.574;90.75;0.00367666;1.0;2
781.059;91.0;0.00293679;1.0;2
783.539;91.25;0.00233762;1.0;2
786.022;91.5;0.00185276;1.0;2
788.504;91.75;0.00146269;1.0;2
790.986;92.0;0.00115013;1.0;2
793.464;92.25;0.000901134;1.0;2
795.94;92.5;0.000703342;1.0;2
798.417;92.75;0.00054671;1.0;2
800.887;93.0;0.000423541;1.0;2
803.361;93.25;0.00032671;1.0;2
805.8379;93.5;0.000250946;1.0;2
808.311;93.75;0.000192054;1.0;2
810.787;94.0;0.000146358;1.0;2
813.258;94.25;0.000111139;1.0;2
815.733;94.5;8.40271e-05;1.0;2
818.21;94.75;6.32646e-05;1.0;2
820.689;95.0;4.74301e-05;1.0;2
823.164;95.25;3.54313e-05;1.0;2
825.643;95.5;2.63524e-05;1.0;2
828.121;95.75;1.95227e-05;1.0;2
830.599;96.0;1.44057e-05;1.0;2
833.079;96.25;1.05856e-05;1.0;2
835.559;96.5;7.74588e-06;1.0;2
838.036;96.75;5.64828e-06;1.0;2
840.512;97.0;4.10309e-06;1.0;2
842.984;97.25;2.96996e-06;1.0;2
845.4585;97.5;2.14048e-06;1.0;2
847.935;97.75;1.53609e-06;1.0;2
850.411;98.0;1.09813e-06;1.0;2
852.884;98.25;7.82205e-07;1.0;2
855.3599;98.5;5.5474e-07;1.0;2
857.833;98.75;3.92027e-07;1.0;2
860.305;99.0;2.7594e-07;1.0;2
862.777;99.25;1.93478e-07;1.0;2
865.247;99.5;1.35167e-07;1.0;2
867.722;99.75;9.39769e-08;1.0;2
870.193;100.0;6.5121e-08;1.0;2
872.666;100.25;4.49259e-08;1.0;2
875.1419;100.5;3.08621e-08;1.0;2
877.622;100.75;2.1103e-08;1.0;2
880.098;101.0;1.43802e-08;1.0;2
882.575;101.25;9.75811e-09;1.0;2
885.052;101.5;6.59615e-09;1.0;2
887.528;101.75;4.44075e-09;1.0;2
890.004;102.0;2.97822e-09;1.0;2
892.48;102.25;1.9894e-09;1.0;2
894.956;102.5;1.32369e-09;1.0;2
897.43;102.75;8.77449e-10;1.0;2
899.902;103.0;5.79523e-10;1.0;2
902.373;103.25;3.81258e-10;1.0;2