File: src/data/kinetics/q10/peak_2.txt
#EXPORTTYPE:DATA SINGLE
#FTYPE:ANSI
#IDENTITY:005922
#DECIMAL:POINT
#SEPARATOR:SEMICOLON
#MTYPE:DSC
#PROJECT:
#TEMPCAL:TCALZERO.TCX
#SENSITIVITY:SENSZERO.EXX
#LABORATORY:13
#REMARK:
#SAMPLE:2
#SAMPLE MASS /mg:7.28
#REFERENCE:
#REFERENCE MASS /mg:0
#TYPE OF CRUCIBLE:DSC/TG pan Al2O3
#SAMPLE CRUCIBLE MASS /mg:0
#REFERENCE CRUCIBLE MASS /mg:0
#DSC RANGE /�V:5000
#TG RANGE /mg:5000
#TAU-R:---
#CORR. CODE:020
#EXO:+1
#RANGE:35�C/00:00/35�C/10,0(K/min)/920�C/
#SEGMENT:S1-2/2
#SEG. 1:35�C/00:15/35�C
#SEG. 2:35�C/10,0(K/min)/920�C

##Temp./�C;Time/min;DSC/(uV/mg);Sensit./(uV/mW);Segment
33.98564;0.25;7.08135e-86;1.0;1
34.00776;0.5;7.19709e-86;1.0;1
34.03218;0.75;7.32706e-86;1.0;1
34.05276;1.0;7.4384e-86;1.0;1
34.06923;1.25;7.52873e-86;1.0;1
34.08182;1.5;7.59851e-86;1.0;1
34.09324;1.75;7.66236e-86;1.0;1
34.10847;2.0;7.74835e-86;1.0;1
34.12312;2.25;7.83198e-86;1.0;1
34.13618;2.5;7.90729e-86;1.0;1
34.14771;2.75;7.97437e-86;1.0;1
34.15324;3.0;8.00675e-86;1.0;1
34.15806;3.25;8.03508e-86;1.0;1
34.161;3.5;8.0524e-86;1.0;1
34.16376;3.75;8.0687e-86;1.0;1
34.16953;4.0;8.10289e-86;1.0;1
34.177;4.25;8.14736e-86;1.0;1
34.18312;4.5;8.18397e-86;1.0;1
34.18659;4.75;8.2048e-86;1.0;1
34.18865;5.0;8.21719e-86;1.0;1
34.19218;5.25;8.23847e-86;1.0;1
34.19294;5.5;8.24306e-86;1.0;1
34.19318;5.75;8.24451e-86;1.0;1
34.19524;6.0;8.25696e-86;1.0;1
34.19906;6.25;8.28011e-86;1.0;1
34.20065;6.5;8.28976e-86;1.0;1
34.19976;6.75;8.28435e-86;1.0;1
34.20253;7.0;8.30118e-86;1.0;1
34.20388;7.25;8.3094e-86;1.0;1
34.206;7.5;8.32231e-86;1.0;1
34.20453;7.75;8.31335e-86;1.0;1
34.20118;8.0;8.29298e-86;1.0;1
34.202;8.25;8.29796e-86;1.0;1
34.20176;8.5;8.2965e-86;1.0;1
34.20118;8.75;8.29298e-86;1.0;1
34.20347;9.0;8.3069e-86;1.0;1
34.20265;9.25;8.30191e-86;1.0;1
34.20318;9.5;8.30514e-86;1.0;1
34.20324;9.75;8.3055e-86;1.0;1
34.205;10.0;8.31622e-86;1.0;1
34.20876;10.25;8.33916e-86;1.0;1
34.20871;10.5;8.33885e-86;1.0;1
34.20641;10.75;8.32481e-86;1.0;1
34.20712;11.0;8.32914e-86;1.0;1
34.20765;11.25;8.33238e-86;1.0;1
34.20771;11.5;8.33274e-86;1.0;1
34.20853;11.75;8.33775e-86;1.0;1
34.20588;12.0;8.32158e-86;1.0;1
34.20988;12.25;8.346e-86;1.0;1
34.20829;12.5;8.33629e-86;1.0;1
34.20865;12.75;8.33849e-86;1.0;1
34.20776;13.0;8.33305e-86;1.0;1
34.20865;13.25;8.33849e-86;1.0;1
34.21177;13.5;8.35757e-86;1.0;1
34.21424;13.75;8.3727e-86;1.0;1
34.21224;14.0;8.36045e-86;1.0;1
34.21053;14.25;8.34998e-86;1.0;1
34.20835;14.5;8.33665e-86;1.0;1
34.209;14.75;8.34062e-86;1.0;1
34.22108;15.0;8.41477e-86;1.0;2
34.21049;15.25;8.34973e-86;1.0;2
34.25831;15.5;8.64743e-86;1.0;2
34.4492;15.75;9.94505e-86;1.0;2
34.84544;16.0;1.32916e-85;1.0;2
35.4671;16.25;2.09423e-85;1.0;2
36.30742;16.5;3.8686e-85;1.0;2
37.34251;16.75;8.22778e-85;1.0;2
38.55148;17.0;1.98271e-84;1.0;2
39.90639;17.25;5.30046e-84;1.0;2
41.38813;17.5;1.54915e-83;1.0;2
42.97527;17.75;4.87033e-83;1.0;2
44.65488;18.0;1.6307e-82;1.0;2
46.42406;18.25;5.79916e-82;1.0;2
48.26587;18.5;2.16271e-81;1.0;2
50.19397;18.75;8.53594e-81;1.0;2
52.17875;19.0;3.48918e-80;1.0;2
54.22524;19.25;1.48168e-79;1.0;2
56.32557;19.5;6.49712e-79;1.0;2
58.4711;19.75;2.92276e-78;1.0;2
60.6614;20.0;1.34794e-77;1.0;2
62.89915;20.25;6.3824e-77;1.0;2
65.16764;20.5;3.06574e-76;1.0;2
67.4673;20.75;1.49392e-75;1.0;2
69.7915;21.0;7.34965e-75;1.0;2
72.14683;21.25;3.66603e-74;1.0;2
74.51336;21.5;1.82862e-73;1.0;2
76.90669;21.75;9.2165e-73;1.0;2
79.31675;22.0;4.66099e-72;1.0;2
81.75552;22.25;2.38375e-71;1.0;2
84.20921;22.5;1.22127e-70;1.0;2
86.67746;22.75;6.26557e-70;1.0;2
89.17272;23.0;3.24488e-69;1.0;2
91.68109;23.25;1.68058e-68;1.0;2
94.20287;23.5;8.70496e-68;1.0;2
96.73827;23.75;4.50942e-67;1.0;2
99.28467;24.0;2.33199e-66;1.0;2
101.844;24.25;1.20542e-65;1.0;2
104.41;24.5;6.19781e-65;1.0;2
106.979;24.75;3.16716e-64;1.0;2
109.553;25.0;1.60739e-63;1.0;2
112.126;25.25;8.08582e-63;1.0;2
114.701;25.5;4.03465e-62;1.0;2
117.277;25.75;1.99615e-61;1.0;2
119.853;26.0;9.78496e-61;1.0;2
122.435;26.25;4.77156e-60;1.0;2
125.02;26.5;2.30883e-59;1.0;2
127.605;26.75;1.10792e-58;1.0;2
130.201;27.0;5.29877e-58;1.0;2
132.809;27.25;2.53003e-57;1.0;2
135.416;27.5;1.19587e-56;1.0;2
138.029;27.75;5.62145e-56;1.0;2
140.645;28.0;2.62243e-55;1.0;2
143.2681;28.25;1.2171e-54;1.0;2
145.893;28.5;5.60233e-54;1.0;2
148.522;28.75;2.55908e-53;1.0;2
151.148;29.0;1.15647e-52;1.0;2
153.785;29.25;5.21021e-52;1.0;2
156.42;29.5;2.3219e-51;1.0;2
159.044;29.75;1.01865e-50;1.0;2
161.667;30.0;4.42331e-50;1.0;2
164.299;30.25;1.91285e-49;1.0;2
166.9269;30.5;8.17561e-49;1.0;2
169.547;30.75;3.44739e-48;1.0;2
172.176;31.0;1.44599e-47;1.0;2
174.8;31.25;5.99582e-47;1.0;2
177.423;31.5;2.46178e-46;1.0;2
180.05;31.75;1.00299e-45;1.0;2
182.675;32.0;4.04305e-45;1.0;2
185.301;32.25;1.61642e-44;1.0;2
187.928;32.5;6.40157e-44;1.0;2
190.5591;32.75;2.5173e-43;1.0;2
193.188;33.0;9.79362e-43;1.0;2
195.817;33.25;3.77524e-42;1.0;2
198.4496;33.5;1.44381e-41;1.0;2
201.073;33.75;5.44538e-41;1.0;2
203.7;34.0;2.0379e-40;1.0;2
206.33;34.25;7.56614e-40;1.0;2
208.954;34.5;2.77415e-39;1.0;2
211.578;34.75;1.00777e-38;1.0;2
214.203;35.0;3.62915e-38;1.0;2
216.827;35.25;1.29347e-37;1.0;2
219.4497;35.5;4.56557e-37;1.0;2
222.074;35.75;1.5972e-36;1.0;2
224.6934;36.0;5.52366e-36;1.0;2
227.314;36.25;1.8935e-35;1.0;2
229.938;36.5;6.43913e-35;1.0;2
232.555;36.75;2.16259e-34;1.0;2
235.177;37.0;7.20827e-34;1.0;2
237.791;37.25;2.37278e-33;1.0;2
240.409;37.5;7.74909e-33;1.0;2
243.019;37.75;2.49897e-32;1.0;2
245.6302;38.0;7.98664e-32;1.0;2
248.239;38.25;2.52643e-31;1.0;2
250.8508;38.5;7.92687e-31;1.0;2
253.459;38.75;2.46065e-30;1.0;2
256.066;39.0;7.56142e-30;1.0;2
258.677;39.25;2.30678e-29;1.0;2
261.282;39.5;6.95158e-29;1.0;2
263.892;39.75;2.08026e-28;1.0;2
266.493;40.0;6.14491e-28;1.0;2
269.1;40.25;1.8028e-27;1.0;2
271.702;40.5;5.22882e-27;1.0;2
274.306;40.75;1.50395e-26;1.0;2
276.905;41.0;4.27853e-26;1.0;2
279.505;41.25;1.20612e-25;1.0;2
282.1045;41.5;3.36748e-25;1.0;2
284.701;41.75;9.30648e-25;1.0;2
287.296;42.0;2.54702e-24;1.0;2
289.889;42.25;6.89828e-24;1.0;2
292.484;42.5;1.85322e-23;1.0;2
295.076;42.75;4.92782e-23;1.0;2
297.662;43.0;1.29561e-22;1.0;2
300.255;43.25;3.38327e-22;1.0;2
302.844;43.5;8.73981e-22;1.0;2
305.438;43.75;2.24154e-21;1.0;2
308.025;44.0;5.68246e-21;1.0;2
310.612;44.25;1.4273e-20;1.0;2
313.198;44.5;3.55152e-20;1.0;2
315.785;44.75;8.75917e-20;1.0;2
318.367;45.0;2.13619e-19;1.0;2
320.95;45.25;5.16591e-19;1.0;2
323.53;45.5;1.23654e-18;1.0;2
326.108;45.75;2.93093e-18;1.0;2
328.684;46.0;6.88017e-18;1.0;2
331.2577;46.25;1.59949e-17;1.0;2
333.832;46.5;3.68528e-17;1.0;2
336.403;46.75;8.40493e-17;1.0;2
338.979;47.0;1.90233e-16;1.0;2
341.5496;47.25;4.26073e-16;1.0;2
344.124;47.5;9.46746e-16;1.0;2
346.695;47.75;2.08227e-15;1.0;2
349.266;48.0;4.53917e-15;1.0;2
351.833;48.25;9.79228e-15;1.0;2
354.404;48.5;2.09638e-14;1.0;2
356.966;48.75;4.43574e-14;1.0;2
359.53;49.0;9.30593e-14;1.0;2
362.093;49.25;1.93471e-13;1.0;2
364.655;49.5;3.98393e-13;1.0;2
367.218;49.75;8.13437e-13;1.0;2
369.777;50.0;1.64415e-12;1.0;2
372.336;50.25;3.29345e-12;1.0;2
374.894;50.5;6.53798e-12;1.0;2
377.455;50.75;1.28682e-11;1.0;2
380.012;51.0;2.5085e-11;1.0;2
382.5729;51.25;4.84975e-11;1.0;2
385.131;51.5;9.2875e-11;1.0;2
387.685;51.75;1.76057e-10;1.0;2
390.241;52.0;3.31011e-10;1.0;2
392.799;52.25;6.17121e-10;1.0;2
395.351;52.5;1.13829e-09;1.0;2
397.901;52.75;2.08037e-09;1.0;2
400.449;53.0;3.76732e-09;1.0;2
402.999;53.25;6.76273e-09;1.0;2
405.55;53.5;1.20369e-08;1.0;2
408.097;53.75;2.12158e-08;1.0;2
410.638;54.0;3.70179e-08;1.0;2
413.188;54.25;6.41391e-08;1.0;2
415.732;54.5;1.10009e-07;1.0;2
418.2771;54.75;1.87063e-07;1.0;2
420.819;55.0;3.15054e-07;1.0;2
423.368;55.25;5.26759e-07;1.0;2
425.911;55.5;8.71807e-07;1.0;2
428.453;55.75;1.42998e-06;1.0;2
430.995;56.0;2.32482e-06;1.0;2
433.535;56.25;3.7449e-06;1.0;2
436.074;56.5;5.97763e-06;1.0;2
438.611;56.75;9.45524e-06;1.0;2
441.145;57.0;1.48172e-05;1.0;2
443.681;57.25;2.30234e-05;1.0;2
446.2171;57.5;3.54633e-05;1.0;2
448.75;57.75;5.41195e-05;1.0;2
451.286;58.0;8.1904e-05;1.0;2
453.818;58.25;0.00012278;1.0;2
456.353;58.5;0.000182536;1.0;2
458.884;58.75;0.000268856;1.0;2
461.418;59.0;0.000392723;1.0;2
463.949;59.25;0.00056832;1.0;2
466.477;59.5;0.000815002;1.0;2
469.003;59.75;0.00115825;1.0;2
471.529;60.0;0.00163159;1.0;2
474.059;60.25;0.00227961;1.0;2
476.582;60.5;0.00315471;1.0;2
479.109;60.75;0.00432972;1.0;2
481.636;61.0;0.00589079;1.0;2
484.1589;61.25;0.00794106;1.0;2
486.683;61.5;0.0106138;1.0;2
489.207;61.75;0.0140621;1.0;2
491.728;62.0;0.018463;1.0;2
494.248;62.25;0.0240296;1.0;2
496.768;62.5;0.0310027;1.0;2
499.294;62.75;0.0396757;1.0;2
501.821;63.0;0.0503395;1.0;2
504.348;63.25;0.0633153;1.0;2
506.882;63.5;0.0789867;1.0;2
509.414;63.75;0.0976585;1.0;2
511.946;64.0;0.119693;1.0;2
514.481;64.25;0.145442;1.0;2
517.0203;64.5;0.175244;1.0;2
519.558;64.75;0.209268;1.0;2
522.098;65.0;0.247749;1.0;2
524.637;65.25;0.290713;1.0;2
527.178;65.5;0.338146;1.0;2
529.719;65.75;0.389881;1.0;2
532.264;66.0;0.445652;1.0;2
534.819;66.25;0.505158;1.0;2
537.468;66.5;0.569842;1.0;2
540.301;66.75;0.641358;1.0;2
543.182;67.0;0.715188;1.0;2
545.883;67.25;0.783962;1.0;2
548.501;67.5;0.84881;1.0;2
551.053;67.75;0.908946;1.0;2
553.563;68.0;0.963825;1.0;2
556.044;68.25;1.01271;1.0;2
558.516;68.5;1.055;1.0;2
560.9793;68.75;1.08979;1.0;2
563.435;69.0;1.11634;1.0;2
565.888;69.25;1.13413;1.0;2
568.34;69.5;1.14274;1.0;2
570.794;69.75;1.14198;1.0;2
573.249;70.0;1.13184;1.0;2
575.705;70.25;1.11256;1.0;2
578.162;70.5;1.08461;1.0;2
580.618;70.75;1.04868;1.0;2
583.077;71.0;1.00554;1.0;2
585.54;71.25;0.956146;1.0;2
588.002;71.5;0.901673;1.0;2
590.47;71.75;0.843136;1.0;2
592.939;72.0;0.78182;1.0;2
595.411;72.25;0.718861;1.0;2
597.889;72.5;0.655331;1.0;2
600.366;72.75;0.592426;1.0;2
602.842;73.0;0.531089;1.0;2
605.318;73.25;0.472157;1.0;2
607.795;73.5;0.416218;1.0;2
610.269;73.75;0.363898;1.0;2
612.752;74.0;0.315327;1.0;2
615.234;74.25;0.270968;1.0;2
617.716;74.5;0.230886;1.0;2
620.198;74.75;0.195082;1.0;2
622.685;75.0;0.163388;1.0;2
625.172;75.25;0.135689;1.0;2
627.656;75.5;0.11176;1.0;2
630.145;75.75;0.0912433;1.0;2
632.631;76.0;0.073885;1.0;2
635.12;76.25;0.0593009;1.0;2
637.608;76.5;0.0472026;1.0;2
640.0961;76.75;0.0372558;1.0;2
642.586;77.0;0.0291504;1.0;2
645.073;77.25;0.022622;1.0;2
647.562;77.5;0.0174051;1.0;2
650.051;77.75;0.0132777;1.0;2
652.538;78.0;0.0100459;1.0;2
655.0239;78.25;0.0075375;1.0;2
657.509;78.5;0.00560835;1.0;2
659.994;78.75;0.00413777;1.0;2
662.477;79.0;0.00302809;1.0;2
664.953;79.25;0.00219929;1.0;2
667.435;79.5;0.0015826;1.0;2
669.913;79.75;0.00113004;1.0;2
672.393;80.0;0.000799907;1.0;2
674.873;80.25;0.00056141;1.0;2
677.351;80.5;0.000390844;1.0;2
679.8299;80.75;0.0002698;1.0;2
682.307;81.0;0.000184739;1.0;2
684.783;81.25;0.000125444;1.0;2
687.259;81.5;8.44714e-05;1.0;2
689.732;81.75;5.64352e-05;1.0;2
692.207;82.0;3.73828e-05;1.0;2
694.679;82.25;2.45656e-05;1.0;2
697.15;82.5;1.6009e-05;1.0;2
699.622;82.75;1.03456e-05;1.0;2
702.093;83.0;6.63177e-06;1.0;2
704.56;83.25;4.21794e-06;1.0;2
707.031;83.5;2.65897e-06;1.0;2
709.502;83.75;1.66185e-06;1.0;2
711.974;84.0;1.03014e-06;1.0;2
714.4421;84.25;6.33563e-07;1.0;2
716.905;84.5;3.8683e-07;1.0;2
719.3678;84.75;2.34274e-07;1.0;2
721.823;85.0;1.40914e-07;1.0;2
724.29;85.25;8.38644e-08;1.0;2
726.768;85.5;4.93695e-08;1.0;2
729.251;85.75;2.87959e-08;1.0;2
731.7324;86.0;1.66568e-08;1.0;2
734.207;86.25;9.56882e-09;1.0;2
736.677;86.5;5.45786e-09;1.0;2
739.14;86.75;3.09154e-09;1.0;2
741.597;87.0;1.73934e-09;1.0;2
744.053;87.25;9.70797e-10;1.0;2
746.505;87.5;5.37863e-10;1.0;2
748.954;87.75;2.95821e-10;1.0;2
751.4;88.0;1.61437e-10;1.0;2
753.854;88.25;8.72411e-11;1.0;2
756.305;88.5;4.67826e-11;1.0;2
758.766;88.75;2.48127e-11;1.0;2
761.228;89.0;1.30524e-11;1.0;2
763.697;89.25;6.79656e-12;1.0;2
766.169;89.5;3.50576e-12;1.0;2
768.649;89.75;1.78966e-12;1.0;2
771.13;90.0;9.05897e-13;1.0;2
773.611;90.25;4.54604e-13;1.0;2
776.092;90.5;2.26221e-13;1.0;2
778.574;90.75;1.11595e-13;1.0;2
781.059;91.0;5.45302e-14;1.0;2
783.539;91.25;2.64656e-14;1.0;2
786.022;91.5;1.27266e-14;1.0;2
788.504;91.75;6.06978e-15;1.0;2
790.986;92.0;2.87063e-15;1.0;2
793.464;92.25;1.34807e-15;1.0;2
795.94;92.5;6.28081e-16;1.0;2
798.417;92.75;2.90078e-16;1.0;2
800.887;93.0;1.33115e-16;1.0;2
803.361;93.25;6.05166e-17;1.0;2
805.8379;93.5;2.72601e-17;1.0;2
808.311;93.75;1.21902e-17;1.0;2
810.787;94.0;5.40136e-18;1.0;2
813.258;94.25;2.37637e-18;1.0;2
815.733;94.5;1.03561e-18;1.0;2
818.21;94.75;4.47307e-19;1.0;2
820.689;95.0;1.9144e-19;1.0;2
823.164;95.25;8.13446e-20;1.0;2
825.643;95.5;3.42368e-20;1.0;2
828.121;95.75;1.42915e-20;1.0;2
830.599;96.0;5.91626e-21;1.0;2
833.079;96.25;2.42742e-21;1.0;2
835.559;96.5;9.8705e-22;1.0;2
838.036;96.75;3.98598e-22;1.0;2
840.512;97.0;1.59707e-22;1.0;2
842.984;97.25;6.35301e-23;1.0;2
845.4585;97.5;2.50366e-23;1.0;2
847.935;97.75;9.77645e-24;1.0;2
850.411;98.0;3.78728e-24;1.0;2
852.884;98.25;1.45643e-24;1.0;2
855.3599;98.5;5.54812e-25;1.0;2
857.833;98.75;2.09842e-25;1.0;2
860.305;99.0;7.87063e-26;1.0;2
862.777;99.25;2.92838e-26;1.0;2
865.247;99.5;1.0815e-26;1.0;2
867.722;99.75;3.95178e-27;1.0;2
870.193;100.0;1.43449e-27;1.0;2
872.666;100.25;5.1574e-28;1.0;2
875.1419;100.5;1.83741e-28;1.0;2
877.622;100.75;6.48004e-29;1.0;2
880.098;101.0;2.26964e-29;1.0;2
882.575;101.25;7.87877e-30;1.0;2
885.052;101.5;2.71315e-30;1.0;2
887.528;101.75;9.26351e-31;1.0;2
890.004;102.0;3.13776e-31;1.0;2
892.48;102.25;1.05395e-31;1.0;2
894.956;102.5;3.51121e-32;1.0;2
897.43;102.75;1.16075e-32;1.0;2
899.902;103.0;3.80862e-33;1.0;2
902.373;103.25;1.23948e-33;1.0;2