File: src/data/kinetics/q10/peak_5.txt
#EXPORTTYPE:DATA SINGLE
#FTYPE:ANSI
#IDENTITY:005922
#DECIMAL:POINT
#SEPARATOR:SEMICOLON
#MTYPE:DSC
#PROJECT:
#TEMPCAL:TCALZERO.TCX
#SENSITIVITY:SENSZERO.EXX
#LABORATORY:13
#REMARK:
#SAMPLE:2
#SAMPLE MASS /mg:7.28
#REFERENCE:
#REFERENCE MASS /mg:0
#TYPE OF CRUCIBLE:DSC/TG pan Al2O3
#SAMPLE CRUCIBLE MASS /mg:0
#REFERENCE CRUCIBLE MASS /mg:0
#DSC RANGE /�V:5000
#TG RANGE /mg:5000
#TAU-R:---
#CORR. CODE:020
#EXO:+1
#RANGE:35�C/00:00/35�C/10,0(K/min)/920�C/
#SEGMENT:S1-2/2
#SEG. 1:35�C/00:15/35�C
#SEG. 2:35�C/10,0(K/min)/920�C

##Temp./�C;Time/min;DSC/(uV/mg);Sensit./(uV/mW);Segment
33.98564;0.25;0.0;1.0;1
34.00776;0.5;0.0;1.0;1
34.03218;0.75;0.0;1.0;1
34.05276;1.0;0.0;1.0;1
34.06923;1.25;0.0;1.0;1
34.08182;1.5;0.0;1.0;1
34.09324;1.75;0.0;1.0;1
34.10847;2.0;0.0;1.0;1
34.12312;2.25;0.0;1.0;1
34.13618;2.5;0.0;1.0;1
34.14771;2.75;0.0;1.0;1
34.15324;3.0;0.0;1.0;1
34.15806;3.25;0.0;1.0;1
34.161;3.5;0.0;1.0;1
34.16376;3.75;0.0;1.0;1
34.16953;4.0;0.0;1.0;1
34.177;4.25;0.0;1.0;1
34.18312;4.5;0.0;1.0;1
34.18659;4.75;0.0;1.0;1
34.18865;5.0;0.0;1.0;1
34.19218;5.25;0.0;1.0;1
34.19294;5.5;0.0;1.0;1
34.19318;5.75;0.0;1.0;1
34.19524;6.0;0.0;1.0;1
34.19906;6.25;0.0;1.0;1
34.20065;6.5;0.0;1.0;1
34.19976;6.75;0.0;1.0;1
34.20253;7.0;0.0;1.0;1
34.20388;7.25;0.0;1.0;1
34.206;7.5;0.0;1.0;1
34.20453;7.75;0.0;1.0;1
34.20118;8.0;0.0;1.0;1
34.202;8.25;0.0;1.0;1
34.20176;8.5;0.0;1.0;1
34.20118;8.75;0.0;1.0;1
34.20347;9.0;0.0;1.0;1
34.20265;9.25;0.0;1.0;1
34.20318;9.5;0.0;1.0;1
34.20324;9.75;0.0;1.0;1
34.205;10.0;0.0;1.0;1
34.20876;10.25;0.0;1.0;1
34.20871;10.5;0.0;1.0;1
34.20641;10.75;0.0;1.0;1
34.20712;11.0;0.0;1.0;1
34.20765;11.25;0.0;1.0;1
34.20771;11.5;0.0;1.0;1
34.20853;11.75;0.0;1.0;1
34.20588;12.0;0.0;1.0;1
34.20988;12.25;0.0;1.0;1
34.20829;12.5;0.0;1.0;1
34.20865;12.75;0.0;1.0;1
34.20776;13.0;0.0;1.0;1
34.20865;13.25;0.0;1.0;1
34.21177;13.5;0.0;1.0;1
34.21424;13.75;0.0;1.0;1
34.21224;14.0;0.0;1.0;1
34.21053;14.25;0.0;1.0;1
34.20835;14.5;0.0;1.0;1
34.209;14.75;0.0;1.0;1
34.22108;15.0;0.0;1.0;2
34.21049;15.25;0.0;1.0;2
34.25831;15.5;0.0;1.0;2
34.4492;15.75;0.0;1.0;2
34.84544;16.0;0.0;1.0;2
35.4671;16.25;0.0;1.0;2
36.30742;16.5;0.0;1.0;2
37.34251;16.75;0.0;1.0;2
38.55148;17.0;0.0;1.0;2
39.90639;17.25;0.0;1.0;2
41.38813;17.5;0.0;1.0;2
42.97527;17.75;0.0;1.0;2
44.65488;18.0;0.0;1.0;2
46.42406;18.25;0.0;1.0;2
48.26587;18.5;0.0;1.0;2
50.19397;18.75;0.0;1.0;2
52.17875;19.0;0.0;1.0;2
54.22524;19.25;0.0;1.0;2
56.32557;19.5;0.0;1.0;2
58.4711;19.75;0.0;1.0;2
60.6614;20.0;0.0;1.0;2
62.89915;20.25;0.0;1.0;2
65.16764;20.5;0.0;1.0;2
67.4673;20.75;0.0;1.0;2
69.7915;21.0;0.0;1.0;2
72.14683;21.25;0.0;1.0;2
74.51336;21.5;0.0;1.0;2
76.90669;21.75;0.0;1.0;2
79.31675;22.0;0.0;1.0;2
81.75552;22.25;0.0;1.0;2
84.20921;22.5;0.0;1.0;2
86.67746;22.75;0.0;1.0;2
89.17272;23.0;0.0;1.0;2
91.68109;23.25;0.0;1.0;2
94.20287;23.5;0.0;1.0;2
96.73827;23.75;0.0;1.0;2
99.28467;24.0;0.0;1.0;2
101.844;24.25;0.0;1.0;2
104.41;24.5;0.0;1.0;2
106.979;24.75;0.0;1.0;2
109.553;25.0;0.0;1.0;2
112.126;25.25;0.0;1.0;2
114.701;25.5;0.0;1.0;2
117.277;25.75;0.0;1.0;2
119.853;26.0;0.0;1.0;2
122.435;26.25;0.0;1.0;2
125.02;26.5;0.0;1.0;2
127.605;26.75;0.0;1.0;2
130.201;27.0;0.0;1.0;2
132.809;27.25;0.0;1.0;2
135.416;27.5;0.0;1.0;2
138.029;27.75;0.0;1.0;2
140.645;28.0;0.0;1.0;2
143.2681;28.25;0.0;1.0;2
145.893;28.5;0.0;1.0;2
148.522;28.75;3.0e-323;1.0;2
151.148;29.0;2.6185e-320;1.0;2
153.785;29.25;2.18824e-317;1.0;2
156.42;29.5;1.76233e-314;1.0;2
159.044;29.75;1.3386e-311;1.0;2
161.667;30.0;9.8239e-309;1.0;2
164.299;30.25;7.16151e-306;1.0;2
166.9269;30.5;5.01141e-303;1.0;2
169.547;30.75;3.33895e-300;1.0;2
172.176;31.0;2.19839e-297;1.0;2
174.8;31.25;1.39073e-294;1.0;2
177.423;31.5;8.51617e-292;1.0;2
180.05;31.75;5.09712e-289;1.0;2
182.675;32.0;2.94207e-286;1.0;2
185.301;32.25;1.65616e-283;1.0;2
187.928;32.5;9.04052e-281;1.0;2
190.5591;32.75;4.83776e-278;1.0;2
193.188;33.0;2.4964e-275;1.0;2
195.817;33.25;1.2506e-272;1.0;2
198.4496;33.5;6.11925e-270;1.0;2
201.073;33.75;2.84433e-267;1.0;2
203.7;34.0;1.29229e-264;1.0;2
206.33;34.25;5.73311e-262;1.0;2
208.954;34.5;2.43165e-259;1.0;2
211.578;34.75;1.00102e-256;1.0;2
214.203;35.0;4.00996e-254;1.0;2
216.827;35.25;1.55122e-251;1.0;2
219.4497;35.5;5.81255e-249;1.0;2
222.074;35.75;2.11735e-246;1.0;2
224.6934;36.0;7.40743e-244;1.0;2
227.314;36.25;2.52048e-241;1.0;2
229.938;36.5;8.37386e-239;1.0;2
232.555;36.75;2.65943e-236;1.0;2
235.177;37.0;8.26356e-234;1.0;2
237.791;37.25;2.45382e-231;1.0;2
240.409;37.5;7.11798e-229;1.0;2
243.019;37.75;1.97184e-226;1.0;2
245.6302;38.0;5.3079e-224;1.0;2
248.239;38.25;1.3799e-221;1.0;2
250.8508;38.5;3.49995e-219;1.0;2
253.459;38.75;8.55529e-217;1.0;2
256.066;39.0;2.02101e-214;1.0;2
258.677;39.25;4.67888e-212;1.0;2
261.282;39.5;1.03589e-209;1.0;2
263.892;39.75;2.25044e-207;1.0;2
266.493;40.0;4.65849e-205;1.0;2
269.1;40.25;9.47089e-203;1.0;2
271.702;40.5;1.84835e-200;1.0;2
274.306;40.75;3.51638e-198;1.0;2
276.905;41.0;6.43635e-196;1.0;2
279.505;41.25;1.14395e-193;1.0;2
282.1045;41.5;1.9693e-191;1.0;2
284.701;41.75;3.27395e-189;1.0;2
287.296;42.0;5.26846e-187;1.0;2
289.889;42.25;8.17692e-185;1.0;2
292.484;42.5;1.2386e-182;1.0;2
295.076;42.75;1.81116e-180;1.0;2
297.662;43.0;2.54288e-178;1.0;2
300.255;43.25;3.50785e-176;1.0;2
302.844;43.5;4.65764e-174;1.0;2
305.438;43.75;6.06497e-172;1.0;2
308.025;44.0;7.56869e-170;1.0;2
310.612;44.25;9.16486e-168;1.0;2
313.198;44.5;1.07596e-165;1.0;2
315.785;44.75;1.22806e-163;1.0;2
318.367;45.0;1.34591e-161;1.0;2
320.95;45.25;1.43713e-159;1.0;2
323.53;45.5;1.48099e-157;1.0;2
326.108;45.75;1.47611e-155;1.0;2
328.684;46.0;1.42399e-153;1.0;2
331.2577;46.25;1.3294e-151;1.0;2
333.832;46.5;1.20577e-149;1.0;2
336.403;46.75;1.05547e-147;1.0;2
338.979;47.0;9.04161e-146;1.0;2
341.5496;47.25;7.46275e-144;1.0;2
344.124;47.5;6.01789e-142;1.0;2
346.695;47.75;4.68171e-140;1.0;2
349.266;48.0;3.53969e-138;1.0;2
351.833;48.25;2.57872e-136;1.0;2
354.404;48.5;1.83859e-134;1.0;2
356.966;48.75;1.25384e-132;1.0;2
359.53;49.0;8.32678e-131;1.0;2
362.093;49.25;5.36849e-129;1.0;2
364.655;49.5;3.35036e-127;1.0;2
367.218;49.75;2.03669e-125;1.0;2
369.777;50.0;1.19465e-123;1.0;2
372.336;50.25;6.80504e-122;1.0;2
374.894;50.5;3.76397e-120;1.0;2
377.455;50.75;2.02701e-118;1.0;2
380.012;51.0;1.05618e-116;1.0;2
382.5729;51.25;5.36765e-115;1.0;2
385.131;51.5;2.64124e-113;1.0;2
387.685;51.75;1.25303e-111;1.0;2
390.241;52.0;5.80009e-110;1.0;2
392.799;52.25;2.61617e-108;1.0;2
395.351;52.5;1.13398e-106;1.0;2
397.901;52.75;4.76662e-105;1.0;2
400.449;53.0;1.94291e-103;1.0;2
402.999;53.25;7.70065e-102;1.0;2
405.55;53.5;2.97261e-100;1.0;2
408.097;53.75;1.10848e-98;1.0;2
410.638;54.0;3.9844e-97;1.0;2
413.188;54.25;1.40842e-95;1.0;2
415.732;54.5;4.79734e-94;1.0;2
418.2771;54.75;1.59024e-92;1.0;2
420.819;55.0;5.09721e-91;1.0;2
423.368;55.25;1.60422e-89;1.0;2
425.911;55.5;4.86267e-88;1.0;2
428.453;55.75;1.43096e-86;1.0;2
430.995;56.0;4.09143e-85;1.0;2
433.535;56.25;1.13361e-83;1.0;2
436.074;56.5;3.0459e-82;1.0;2
438.611;56.75;7.93813e-81;1.0;2
441.145;57.0;2.00304e-79;1.0;2
443.681;57.25;4.92244e-78;1.0;2
446.2171;57.5;1.17623e-76;1.0;2
448.75;57.75;2.72153e-75;1.0;2
451.286;58.0;6.14052e-74;1.0;2
453.818;58.25;1.33921e-72;1.0;2
456.353;58.5;2.84929e-71;1.0;2
458.884;58.75;5.86697e-70;1.0;2
461.418;59.0;1.17858e-68;1.0;2
463.949;59.25;2.29066e-67;1.0;2
466.477;59.5;4.31623e-66;1.0;2
469.003;59.75;7.88655e-65;1.0;2
471.529;60.0;1.39968e-63;1.0;2
474.059;60.25;2.4258e-62;1.0;2
476.582;60.5;4.05792e-61;1.0;2
479.109;60.75;6.62419e-60;1.0;2
481.636;61.0;1.0513e-58;1.0;2
484.1589;61.25;1.61452e-57;1.0;2
486.683;61.5;2.41401e-56;1.0;2
489.207;61.75;3.50692e-55;1.0;2
491.728;62.0;4.93629e-54;1.0;2
494.248;62.25;6.7508e-53;1.0;2
496.768;62.5;8.9717e-52;1.0;2
499.294;62.75;1.16611e-50;1.0;2
501.821;63.0;1.47524e-49;1.0;2
504.348;63.25;1.81466e-48;1.0;2
506.882;63.5;2.18358e-47;1.0;2
509.414;63.75;2.54867e-46;1.0;2
511.946;64.0;2.89227e-45;1.0;2
514.481;64.25;3.19714e-44;1.0;2
517.0203;64.5;3.45003e-43;1.0;2
519.558;64.75;3.61113e-42;1.0;2
522.098;65.0;3.68248e-41;1.0;2
524.637;65.25;3.64638e-40;1.0;2
527.178;65.5;3.51139e-39;1.0;2
529.719;65.75;3.28888e-38;1.0;2
532.264;66.0;3.00211e-37;1.0;2
534.819;66.25;2.68685e-36;1.0;2
537.468;66.5;2.5271e-35;1.0;2
540.301;66.75;2.68308e-34;1.0;2
543.182;67.0;2.85824e-33;1.0;2
545.883;67.25;2.53902e-32;1.0;2
548.501;67.5;2.04523e-31;1.0;2
551.053;67.75;1.51835e-30;1.0;2
553.563;68.0;1.06015e-29;1.0;2
556.044;68.25;7.0419e-29;1.0;2
558.516;68.5;4.52072e-28;1.0;2
560.9793;68.75;2.80641e-27;1.0;2
563.435;69.0;1.68675e-26;1.0;2
565.888;69.25;9.84917e-26;1.0;2
568.34;69.5;5.59377e-25;1.0;2
570.794;69.75;3.09833e-24;1.0;2
573.249;70.0;1.67181e-23;1.0;2
575.705;70.25;8.79117e-23;1.0;2
578.162;70.5;4.50203e-22;1.0;2
580.618;70.75;2.24287e-21;1.0;2
583.077;71.0;1.08985e-20;1.0;2
585.54;71.25;5.1694e-20;1.0;2
588.002;71.5;2.38556e-19;1.0;2
590.47;71.75;1.07536e-18;1.0;2
592.939;72.0;4.72161e-18;1.0;2
595.411;72.25;2.02124e-17;1.0;2
597.889;72.5;8.44582e-17;1.0;2
600.366;72.75;3.43341e-16;1.0;2
602.842;73.0;1.35794e-15;1.0;2
605.318;73.25;5.22202e-15;1.0;2
607.795;73.5;1.95609e-14;1.0;2
610.269;73.75;7.11926e-14;1.0;2
612.752;74.0;2.53335e-13;1.0;2
615.234;74.25;8.76459e-13;1.0;2
617.716;74.5;2.95117e-12;1.0;2
620.198;74.75;9.66786e-12;1.0;2
622.685;75.0;3.0886e-11;1.0;2
625.172;75.25;9.59947e-11;1.0;2
627.656;75.5;2.89923e-10;1.0;2
630.145;75.75;8.53521e-10;1.0;2
632.631;76.0;2.44119e-09;1.0;2
635.12;76.25;6.80568e-09;1.0;2
637.608;76.5;1.8442e-08;1.0;2
640.0961;76.75;4.86175e-08;1.0;2
642.586;77.0;1.24792e-07;1.0;2
645.073;77.25;3.11312e-07;1.0;2
647.562;77.5;7.55917e-07;1.0;2
650.051;77.75;1.78583e-06;1.0;2
652.538;78.0;4.10163e-06;1.0;2
655.0239;78.25;9.16236e-06;1.0;2
657.509;78.5;1.99075e-05;1.0;2
659.994;78.75;4.20842e-05;1.0;2
662.477;79.0;8.64929e-05;1.0;2
664.953;79.25;0.000172648;1.0;2
667.435;79.5;0.000335934;1.0;2
669.913;79.75;0.000635197;1.0;2
672.393;80.0;0.00116931;1.0;2
674.873;80.25;0.00209491;1.0;2
677.351;80.5;0.00365022;1.0;2
679.8299;80.75;0.00618966;1.0;2
682.307;81.0;0.0102091;1.0;2
684.783;81.25;0.016385;1.0;2
687.259;81.5;0.0255887;1.0;2
689.732;81.75;0.0388682;1.0;2
692.207;82.0;0.0574659;1.0;2
694.679;82.25;0.0826546;1.0;2
697.15;82.5;0.115697;1.0;2
699.622;82.75;0.157614;1.0;2
702.093;83.0;0.208932;1.0;2
704.56;83.25;0.269475;1.0;2
707.031;83.5;0.338368;1.0;2
709.502;83.75;0.413545;1.0;2
711.974;84.0;0.491864;1.0;2
714.4421;84.25;0.569275;1.0;2
716.905;84.5;0.641123;1.0;2
719.3678;84.75;0.702808;1.0;2
721.823;85.0;0.749837;1.0;2
724.29;85.25;0.778948;1.0;2
726.768;85.5;0.787596;1.0;2
729.251;85.75;0.774858;1.0;2
731.7324;86.0;0.741743;1.0;2
734.207;86.25;0.691034;1.0;2
736.677;86.5;0.626656;1.0;2
739.14;86.75;0.55327;1.0;2
741.597;87.0;0.475687;1.0;2
744.053;87.25;0.398194;1.0;2
746.505;87.5;0.324616;1.0;2
748.954;87.75;0.25775;1.0;2
751.4;88.0;0.199314;1.0;2
753.854;88.25;0.149964;1.0;2
756.305;88.5;0.109884;1.0;2
758.766;88.75;0.0782755;1.0;2
761.228;89.0;0.0542796;1.0;2
763.697;89.25;0.0365972;1.0;2
766.169;89.5;0.0239983;1.0;2
768.649;89.75;0.0152939;1.0;2
771.13;90.0;0.00948346;1.0;2
773.611;90.25;0.00572099;1.0;2
776.092;90.5;0.00335814;1.0;2
778.574;90.75;0.00191753;1.0;2
781.059;91.0;0.00106443;1.0;2
783.539;91.25;0.000575694;1.0;2
786.022;91.5;0.000302746;1.0;2
788.504;91.75;0.000154937;1.0;2
790.986;92.0;7.71522e-05;1.0;2
793.464;92.25;3.74306e-05;1.0;2
795.94;92.5;1.76798e-05;1.0;2
798.417;92.75;8.12329e-06;1.0;2
800.887;93.0;3.63952e-06;1.0;2
803.361;93.25;1.58529e-06;1.0;2
805.8379;93.5;6.71388e-07;1.0;2
808.311;93.75;2.77032e-07;1.0;2
810.787;94.0;1.11144e-07;1.0;2
813.258;94.25;4.34568e-08;1.0;2
815.733;94.5;1.65142e-08;1.0;2
818.21;94.75;6.10316e-09;1.0;2
820.689;95.0;2.19285e-09;1.0;2
823.164;95.25;7.67798e-10;1.0;2
825.643;95.5;2.61244e-10;1.0;2
828.121;95.75;8.65128e-11;1.0;2
830.599;96.0;2.78811e-11;1.0;2
833.079;96.25;8.73772e-12;1.0;2
835.559;96.5;2.66251e-12;1.0;2
838.036;96.75;7.91033e-13;1.0;2
840.512;97.0;2.2887e-13;1.0;2
842.984;97.25;6.45445e-14;1.0;2
845.4585;97.5;1.76905e-14;1.0;2
847.935;97.75;4.7131e-15;1.0;2
850.411;98.0;1.22265e-15;1.0;2
852.884;98.25;3.09125e-16;1.0;2
855.3599;98.5;7.59406e-17;1.0;2
857.833;98.75;1.81876e-17;1.0;2
860.305;99.0;4.2392e-18;1.0;2
862.777;99.25;9.62049e-19;1.0;2
865.247;99.5;2.1279e-19;1.0;2
867.722;99.75;4.56439e-20;1.0;2
870.193;100.0;9.5544e-21;1.0;2
872.666;100.25;1.94265e-21;1.0;2
875.1419;100.5;3.83947e-22;1.0;2
877.622;100.75;7.36391e-23;1.0;2
880.098;101.0;1.37766e-23;1.0;2
882.575;101.25;2.50594e-24;1.0;2
885.052;101.5;4.4383e-25;1.0;2
887.528;101.75;7.64744e-26;1.0;2
890.004;102.0;1.28318e-26;1.0;2
892.48;102.25;2.09522e-27;1.0;2
894.956;102.5;3.33027e-28;1.0;2
897.43;102.75;5.15694e-29;1.0;2
899.902;103.0;7.78294e-30;1.0;2
902.373;103.25;1.14349e-30;1.0;2