File: src/data/kinetics/q10/peak_4.txt
#EXPORTTYPE:DATA SINGLE
#FTYPE:ANSI
#IDENTITY:005922
#DECIMAL:POINT
#SEPARATOR:SEMICOLON
#MTYPE:DSC
#PROJECT:
#TEMPCAL:TCALZERO.TCX
#SENSITIVITY:SENSZERO.EXX
#LABORATORY:13
#REMARK:
#SAMPLE:2
#SAMPLE MASS /mg:7.28
#REFERENCE:
#REFERENCE MASS /mg:0
#TYPE OF CRUCIBLE:DSC/TG pan Al2O3
#SAMPLE CRUCIBLE MASS /mg:0
#REFERENCE CRUCIBLE MASS /mg:0
#DSC RANGE /�V:5000
#TG RANGE /mg:5000
#TAU-R:---
#CORR. CODE:020
#EXO:+1
#RANGE:35�C/00:00/35�C/10,0(K/min)/920�C/
#SEGMENT:S1-2/2
#SEG. 1:35�C/00:15/35�C
#SEG. 2:35�C/10,0(K/min)/920�C

##Temp./�C;Time/min;DSC/(uV/mg);Sensit./(uV/mW);Segment
33.98564;0.25;1.7297e-173;1.0;1
34.00776;0.5;1.77617e-173;1.0;1
34.03218;0.75;1.82893e-173;1.0;1
34.05276;1.0;1.87461e-173;1.0;1
34.06923;1.25;1.91198e-173;1.0;1
34.08182;1.5;1.94105e-173;1.0;1
34.09324;1.75;1.9678e-173;1.0;1
34.10847;2.0;2.00405e-173;1.0;1
34.12312;2.25;2.03954e-173;1.0;1
34.13618;2.5;2.07172e-173;1.0;1
34.14771;2.75;2.10054e-173;1.0;1
34.15324;3.0;2.11451e-173;1.0;1
34.15806;3.25;2.12676e-173;1.0;1
34.161;3.5;2.13427e-173;1.0;1
34.16376;3.75;2.14134e-173;1.0;1
34.16953;4.0;2.1562e-173;1.0;1
34.177;4.25;2.17558e-173;1.0;1
34.18312;4.5;2.1916e-173;1.0;1
34.18659;4.75;2.20073e-173;1.0;1
34.18865;5.0;2.20617e-173;1.0;1
34.19218;5.25;2.21552e-173;1.0;1
34.19294;5.5;2.21754e-173;1.0;1
34.19318;5.75;2.21818e-173;1.0;1
34.19524;6.0;2.22366e-173;1.0;1
34.19906;6.25;2.23386e-173;1.0;1
34.20065;6.5;2.23812e-173;1.0;1
34.19976;6.75;2.23574e-173;1.0;1
34.20253;7.0;2.24317e-173;1.0;1
34.20388;7.25;2.2468e-173;1.0;1
34.206;7.5;2.25252e-173;1.0;1
34.20453;7.75;2.24855e-173;1.0;1
34.20118;8.0;2.23955e-173;1.0;1
34.202;8.25;2.24175e-173;1.0;1
34.20176;8.5;2.2411e-173;1.0;1
34.20118;8.75;2.23955e-173;1.0;1
34.20347;9.0;2.2457e-173;1.0;1
34.20265;9.25;2.24349e-173;1.0;1
34.20318;9.5;2.24492e-173;1.0;1
34.20324;9.75;2.24508e-173;1.0;1
34.205;10.0;2.24982e-173;1.0;1
34.20876;10.25;2.25998e-173;1.0;1
34.20871;10.5;2.25984e-173;1.0;1
34.20641;10.75;2.25363e-173;1.0;1
34.20712;11.0;2.25554e-173;1.0;1
34.20765;11.25;2.25698e-173;1.0;1
34.20771;11.5;2.25714e-173;1.0;1
34.20853;11.75;2.25936e-173;1.0;1
34.20588;12.0;2.25219e-173;1.0;1
34.20988;12.25;2.26302e-173;1.0;1
34.20829;12.5;2.25871e-173;1.0;1
34.20865;12.75;2.25968e-173;1.0;1
34.20776;13.0;2.25727e-173;1.0;1
34.20865;13.25;2.25968e-173;1.0;1
34.21177;13.5;2.26815e-173;1.0;1
34.21424;13.75;2.27487e-173;1.0;1
34.21224;14.0;2.26942e-173;1.0;1
34.21053;14.25;2.26478e-173;1.0;1
34.20835;14.5;2.25887e-173;1.0;1
34.209;14.75;2.26063e-173;1.0;1
34.22108;15.0;2.29359e-173;1.0;2
34.21049;15.25;2.26467e-173;1.0;2
34.25831;15.5;2.39823e-173;1.0;2
34.4492;15.75;3.01447e-173;1.0;2
34.84544;16.0;4.8449e-173;1.0;2
35.4671;16.25;1.0194e-172;1.0;2
36.30742;16.5;2.78328e-172;1.0;2
37.34251;16.75;9.57441e-172;1.0;2
38.55148;17.0;4.04331e-171;1.0;2
39.90639;17.25;2.02545e-170;1.0;2
41.38813;17.5;1.17534e-169;1.0;2
42.97527;17.75;7.6951e-169;1.0;2
44.65488;18.0;5.59318e-168;1.0;2
46.42406;18.25;4.49418e-167;1.0;2
48.26587;18.5;3.91008e-166;1.0;2
50.19397;18.75;3.74015e-165;1.0;2
52.17875;19.0;3.79644e-164;1.0;2
54.22524;19.25;4.11077e-163;1.0;2
56.32557;19.5;4.70187e-162;1.0;2
58.4711;19.75;5.62112e-161;1.0;2
60.6614;20.0;7.01674e-160;1.0;2
62.89915;20.25;9.16881e-159;1.0;2
65.16764;20.5;1.22975e-157;1.0;2
67.4673;20.75;1.69313e-156;1.0;2
69.7915;21.0;2.37413e-155;1.0;2
72.14683;21.25;3.41473e-154;1.0;2
74.51336;21.5;4.92417e-153;1.0;2
76.90669;21.75;7.24382e-152;1.0;2
79.31675;22.0;1.07455e-150;1.0;2
81.75552;22.25;1.62854e-149;1.0;2
84.20921;22.5;2.48248e-148;1.0;2
86.67746;22.75;3.80391e-147;1.0;2
89.17272;23.0;5.93868e-146;1.0;2
91.68109;23.25;9.30032e-145;1.0;2
94.20287;23.5;1.46123e-143;1.0;2
96.73827;23.75;2.30343e-142;1.0;2
99.28467;24.0;3.63204e-141;1.0;2
101.844;24.25;5.74113e-140;1.0;2
104.41;24.5;9.02336e-139;1.0;2
106.979;24.75;1.40824e-137;1.0;2
109.553;25.0;2.17973e-136;1.0;2
112.126;25.25;3.33493e-135;1.0;2
114.701;25.5;5.04988e-134;1.0;2
117.277;25.75;7.56299e-133;1.0;2
119.853;26.0;1.11886e-131;1.0;2
122.435;26.25;1.64628e-130;1.0;2
125.02;26.5;2.39892e-129;1.0;2
127.605;26.75;3.45858e-128;1.0;2
130.201;27.0;4.97549e-127;1.0;2
132.809;27.25;7.16324e-126;1.0;2
135.416;27.5;1.0173e-124;1.0;2
138.029;27.75;1.43642e-123;1.0;2
140.645;28.0;2.00931e-122;1.0;2
143.2681;28.25;2.79637e-121;1.0;2
145.893;28.5;3.85146e-120;1.0;2
148.522;28.75;5.25505e-119;1.0;2
151.148;29.0;7.06562e-118;1.0;2
153.785;29.25;9.48631e-117;1.0;2
156.42;29.5;1.25475e-115;1.0;2
159.044;29.75;1.62156e-114;1.0;2
161.667;30.0;2.06669e-113;1.0;2
164.299;30.25;2.62554e-112;1.0;2
166.9269;30.5;3.28122e-111;1.0;2
169.547;30.75;4.02125e-110;1.0;2
172.176;31.0;4.90255e-109;1.0;2
174.8;31.25;5.88187e-108;1.0;2
177.423;31.5;6.96437e-107;1.0;2
180.05;31.75;8.16855e-106;1.0;2
182.675;32.0;9.44192e-105;1.0;2
185.301;32.25;1.0802e-103;1.0;2
187.928;32.5;1.22044e-102;1.0;2
190.5591;32.75;1.36748e-101;1.0;2
193.188;33.0;1.50995e-100;1.0;2
195.817;33.25;1.64728e-99;1.0;2
198.4496;33.5;1.7797e-98;1.0;2
201.073;33.75;1.88394e-97;1.0;2
203.7;34.0;1.97554e-96;1.0;2
206.33;34.25;2.05132e-95;1.0;2
208.954;34.5;2.09212e-94;1.0;2
211.578;34.75;2.10797e-93;1.0;2
214.203;35.0;2.10037e-92;1.0;2
216.827;35.25;2.06352e-91;1.0;2
219.4497;35.5;2.00129e-90;1.0;2
222.074;35.75;1.91869e-89;1.0;2
224.6934;36.0;1.80994e-88;1.0;2
227.314;36.25;1.68809e-87;1.0;2
229.938;36.5;1.559e-86;1.0;2
232.555;36.75;1.41413e-85;1.0;2
235.177;37.0;1.27113e-84;1.0;2
237.791;37.25;1.12211e-83;1.0;2
240.409;37.5;9.81029e-83;1.0;2
243.019;37.75;8.42101e-82;1.0;2
245.6302;38.0;7.14439e-81;1.0;2
248.239;38.25;5.97679e-80;1.0;2
250.8508;38.5;4.94947e-79;1.0;2
253.459;38.75;4.03833e-78;1.0;2
256.066;39.0;3.24981e-77;1.0;2
258.677;39.25;2.59326e-76;1.0;2
261.282;39.5;2.03286e-75;1.0;2
263.892;39.75;1.5809e-74;1.0;2
266.493;40.0;1.20609e-73;1.0;2
269.1;40.25;9.13138e-73;1.0;2
271.702;40.5;6.80141e-72;1.0;2
274.306;40.75;5.01311e-71;1.0;2
276.905;41.0;3.6383e-70;1.0;2
279.505;41.25;2.6091e-69;1.0;2
282.1045;41.5;1.84702e-68;1.0;2
284.701;41.75;1.2893e-67;1.0;2
287.296;42.0;8.88212e-67;1.0;2
289.889;42.25;6.03073e-66;1.0;2
292.484;42.5;4.05384e-65;1.0;2
295.076;42.75;2.68659e-64;1.0;2
297.662;43.0;1.75182e-63;1.0;2
300.255;43.25;1.13377e-62;1.0;2
302.844;43.5;7.2263e-62;1.0;2
305.438;43.75;4.56821e-61;1.0;2
308.025;44.0;2.83938e-60;1.0;2
310.612;44.25;1.74336e-59;1.0;2
313.198;44.5;1.05708e-58;1.0;2
315.785;44.75;6.33625e-58;1.0;2
318.367;45.0;3.73705e-57;1.0;2
320.95;45.25;2.18063e-56;1.0;2
323.53;45.5;1.25442e-55;1.0;2
326.108;45.75;7.1197e-55;1.0;2
328.684;46.0;3.98805e-54;1.0;2
331.2577;46.25;2.20452e-53;1.0;2
333.832;46.5;1.20439e-52;1.0;2
336.403;46.75;6.48678e-52;1.0;2
338.979;47.0;3.46239e-51;1.0;2
341.5496;47.25;1.82081e-50;1.0;2
344.124;47.5;9.48341e-50;1.0;2
346.695;47.75;4.86874e-49;1.0;2
349.266;48.0;2.4707e-48;1.0;2
351.833;48.25;1.23531e-47;1.0;2
354.404;48.5;6.12105e-47;1.0;2
356.966;48.75;2.9801e-46;1.0;2
359.53;49.0;1.43521e-45;1.0;2
362.093;49.25;6.82941e-45;1.0;2
364.655;49.5;3.20739e-44;1.0;2
367.218;49.75;1.4902e-43;1.0;2
369.777;50.0;6.82537e-43;1.0;2
372.336;50.25;3.08914e-42;1.0;2
374.894;50.5;1.38154e-41;1.0;2
377.455;50.75;6.11139e-41;1.0;2
380.012;51.0;2.66778e-40;1.0;2
382.5729;51.25;1.15265e-39;1.0;2
385.131;51.5;4.91577e-39;1.0;2
387.685;51.75;2.06609e-38;1.0;2
390.241;52.0;8.5961e-38;1.0;2
392.799;52.25;3.53865e-37;1.0;2
395.351;52.5;1.43388e-36;1.0;2
397.901;52.75;5.73844e-36;1.0;2
400.449;53.0;2.26817e-35;1.0;2
402.999;53.25;8.8634e-35;1.0;2
405.55;53.5;3.42631e-34;1.0;2
408.097;53.75;1.30629e-33;1.0;2
410.638;54.0;4.90792e-33;1.0;2
413.188;54.25;1.83066e-32;1.0;2
415.732;54.5;6.72838e-32;1.0;2
418.2771;54.75;2.44562e-31;1.0;2
420.819;55.0;8.77037e-31;1.0;2
423.368;55.25;3.12066e-30;1.0;2
425.911;55.5;1.09393e-29;1.0;2
428.453;55.75;3.78899e-29;1.0;2
430.995;56.0;1.29711e-28;1.0;2
433.535;56.25;4.38457e-28;1.0;2
436.074;56.5;1.46384e-27;1.0;2
438.611;56.75;4.82735e-27;1.0;2
441.145;57.0;1.57141e-26;1.0;2
443.681;57.25;5.06018e-26;1.0;2
446.2171;57.5;1.61096e-25;1.0;2
448.75;57.75;5.06273e-25;1.0;2
451.286;58.0;1.57464e-24;1.0;2
453.818;58.25;4.83154e-24;1.0;2
456.353;58.5;1.4674e-23;1.0;2
458.884;58.75;4.39864e-23;1.0;2
461.418;59.0;1.30513e-22;1.0;2
463.949;59.25;3.82162e-22;1.0;2
466.477;59.5;1.10515e-21;1.0;2
469.003;59.75;3.15656e-21;1.0;2
471.529;60.0;8.91011e-21;1.0;2
474.059;60.25;2.4904e-20;1.0;2
476.582;60.5;6.86354e-20;1.0;2
479.109;60.75;1.87255e-19;1.0;2
481.636;61.0;5.05059e-19;1.0;2
484.1589;61.25;1.34444e-18;1.0;2
486.683;61.5;3.53989e-18;1.0;2
489.207;61.75;9.21222e-18;1.0;2
491.728;62.0;2.36721e-17;1.0;2
494.248;62.25;6.01223e-17;1.0;2
496.768;62.5;1.50935e-16;1.0;2
499.294;62.75;3.75394e-16;1.0;2
501.821;63.0;9.23386e-16;1.0;2
504.348;63.25;2.24554e-15;1.0;2
506.882;63.5;5.41034e-15;1.0;2
509.414;63.75;1.28765e-14;1.0;2
511.946;64.0;3.0297e-14;1.0;2
514.481;64.25;7.052e-14;1.0;2
517.0203;64.5;1.62505e-13;1.0;2
519.558;64.75;3.69901e-13;1.0;2
522.098;65.0;8.32992e-13;1.0;2
524.637;65.25;1.85363e-12;1.0;2
527.178;65.5;4.07818e-12;1.0;2
529.719;65.75;8.87135e-12;1.0;2
532.264;66.0;1.90937e-11;1.0;2
534.819;66.25;4.07447e-11;1.0;2
537.468;66.5;8.82886e-11;1.0;2
540.301;66.75;1.99057e-10;1.0;2
543.182;67.0;4.48294e-10;1.0;2
545.883;67.25;9.46573e-10;1.0;2
548.501;67.5;1.92905e-09;1.0;2
551.053;67.75;3.816e-09;1.0;2
553.563;68.0;7.37904e-09;1.0;2
556.044;68.25;1.40035e-08;1.0;2
558.516;68.5;2.62217e-08;1.0;2
560.9793;68.75;4.84571e-08;1.0;2
563.435;69.0;8.84128e-08;1.0;2
565.888;69.25;1.59456e-07;1.0;2
568.34;69.5;2.84382e-07;1.0;2
570.794;69.75;5.01981e-07;1.0;2
573.249;70.0;8.7667e-07;1.0;2
575.705;70.25;1.51496e-06;1.0;2
578.162;70.5;2.58989e-06;1.0;2
580.618;70.75;4.3785e-06;1.0;2
583.077;71.0;7.32657e-06;1.0;2
585.54;71.25;1.21372e-05;1.0;2
588.002;71.5;1.98841e-05;1.0;2
590.47;71.75;3.22572e-05;1.0;2
592.939;72.0;5.17696e-05;1.0;2
595.411;72.25;8.22208e-05;1.0;2
597.889;72.5;0.000129272;1.0;2
600.366;72.75;0.000200994;1.0;2
602.842;73.0;0.000309045;1.0;2
605.318;73.25;0.000469829;1.0;2
607.795;73.5;0.000706612;1.0;2
610.269;73.75;0.00105053;1.0;2
612.752;74.0;0.00154686;1.0;2
615.234;74.25;0.00225196;1.0;2
617.716;74.5;0.00324245;1.0;2
620.198;74.75;0.00461682;1.0;2
622.685;75.0;0.00650536;1.0;2
625.172;75.25;0.00906455;1.0;2
627.656;75.5;0.012486;1.0;2
630.145;75.75;0.0170173;1.0;2
632.631;76.0;0.0229262;1.0;2
635.12;76.25;0.0305601;1.0;2
637.608;76.5;0.040273;1.0;2
640.0961;76.75;0.0524829;1.0;2
642.586;77.0;0.0676492;1.0;2
645.073;77.25;0.0862053;1.0;2
647.562;77.5;0.108645;1.0;2
650.051;77.75;0.135405;1.0;2
652.538;78.0;0.166852;1.0;2
655.0239;78.25;0.203304;1.0;2
657.509;78.5;0.244955;1.0;2
659.994;78.75;0.291868;1.0;2
662.477;79.0;0.343852;1.0;2
664.953;79.25;0.400454;1.0;2
667.435;79.5;0.461403;1.0;2
669.913;79.75;0.525613;1.0;2
672.393;80.0;0.592215;1.0;2
674.873;80.25;0.65991;1.0;2
677.351;80.5;0.72716;1.0;2
679.8299;80.75;0.79244;1.0;2
682.307;81.0;0.854005;1.0;2
684.783;81.25;0.910207;1.0;2
687.259;81.5;0.959419;1.0;2
689.732;81.75;1.00011;1.0;2
692.207;82.0;1.03109;1.0;2
694.679;82.25;1.05132;1.0;2
697.15;82.5;1.06019;1.0;2
699.622;82.75;1.05741;1.0;2
702.093;83.0;1.04307;1.0;2
704.56;83.25;1.01769;1.0;2
707.031;83.5;0.982011;1.0;2
709.502;83.75;0.937176;1.0;2
711.974;84.0;0.88459;1.0;2
714.4421;84.25;0.825862;1.0;2
716.905;84.5;0.762732;1.0;2
719.3678;84.75;0.696777;1.0;2
721.823;85.0;0.629783;1.0;2
724.29;85.25;0.562769;1.0;2
726.768;85.5;0.497077;1.0;2
729.251;85.75;0.434118;1.0;2
731.7324;86.0;0.37495;1.0;2
734.207;86.25;0.320409;1.0;2
736.677;86.5;0.270892;1.0;2
739.14;86.75;0.226622;1.0;2
741.597;87.0;0.187617;1.0;2
744.053;87.25;0.153657;1.0;2
746.505;87.5;0.12452;1.0;2
748.954;87.75;0.0998527;1.0;2
751.4;88.0;0.0792225;1.0;2
753.854;88.25;0.0621387;1.0;2
756.305;88.5;0.0482224;1.0;2
758.766;88.75;0.0369755;1.0;2
761.228;89.0;0.0280439;1.0;2
763.697;89.25;0.0210207;1.0;2
766.169;89.5;0.0155759;1.0;2
768.649;89.75;0.011404;1.0;2
771.13;90.0;0.00825712;1.0;2
773.611;90.25;0.0059119;1.0;2
776.092;90.5;0.00418601;1.0;2
778.574;90.75;0.00293076;1.0;2
781.059;91.0;0.00202812;1.0;2
783.539;91.25;0.00138913;1.0;2
786.022;91.5;0.000940545;1.0;2
788.504;91.75;0.000629841;1.0;2
790.986;92.0;0.000417115;1.0;2
793.464;92.25;0.00027339;1.0;2
795.94;92.5;0.000177264;1.0;2
798.417;92.75;0.000113647;1.0;2
800.887;93.0;7.21426e-05;1.0;2
803.361;93.25;4.52665e-05;1.0;2
805.8379;93.5;2.80768e-05;1.0;2
808.311;93.75;1.72345e-05;1.0;2
810.787;94.0;1.04577e-05;1.0;2
813.258;94.25;6.28083e-06;1.0;2
815.733;94.5;3.72815e-06;1.0;2
818.21;94.75;2.18785e-06;1.0;2
820.689;95.0;1.26916e-06;1.0;2
823.164;95.25;7.28677e-07;1.0;2
825.643;95.5;4.13454e-07;1.0;2
828.121;95.75;2.32033e-07;1.0;2
830.599;96.0;1.28789e-07;1.0;2
833.079;96.25;7.06717e-08;1.0;2
835.559;96.5;3.83371e-08;1.0;2
838.036;96.75;2.05884e-08;1.0;2
840.512;97.0;1.09391e-08;1.0;2
842.984;97.25;5.75294e-09;1.0;2
845.4585;97.5;2.99024e-09;1.0;2
847.935;97.75;1.53628e-09;1.0;2
850.411;98.0;7.80836e-10;1.0;2
852.884;98.25;3.92802e-10;1.0;2
855.3599;98.5;1.95276e-10;1.0;2
857.833;98.75;9.60969e-11;1.0;2
860.305;99.0;4.67711e-11;1.0;2
862.777;99.25;2.25192e-11;1.0;2
865.247;99.5;1.07311e-11;1.0;2
867.722;99.75;5.04892e-12;1.0;2
870.193;100.0;2.35254e-12;1.0;2
872.666;100.25;1.08312e-12;1.0;2
875.1419;100.5;4.92913e-13;1.0;2
877.622;100.75;2.21551e-13;1.0;2
880.098;101.0;9.85981e-14;1.0;2
882.575;101.25;4.33785e-14;1.0;2
885.052;101.5;1.88797e-14;1.0;2
887.528;101.75;8.12553e-15;1.0;2
890.004;102.0;3.45977e-15;1.0;2
892.48;102.25;1.45692e-15;1.0;2
894.956;102.5;6.06851e-16;1.0;2
897.43;102.75;2.50124e-16;1.0;2
899.902;103.0;1.02032e-16;1.0;2
902.373;103.25;4.11709e-17;1.0;2