File: src/data/kinetics/q5/peak_3.txt
#EXPORTTYPE:DATA SINGLE
#FILE:00592013__Al2O3_900_5_N2_20_air_20.ngb-ds1
#FTYPE:ANSI
#IDENTITY:005920
#DECIMAL:POINT
#SEPARATOR:SEMICOLON
#MTYPE:DSC
#PROJECT:
#DATE/TIME:21.07.2025 08:33
#CORR. FILE:005919_bline_Al2O3_900_5_N2_20_air_20.ngb-bs1
#TEMPCAL:TCALZERO.TCX
#SENSITIVITY:SENSZERO.EXX
#LABORATORY: 11
#OPERATOR:
#REMARK:
#SAMPLE:1
#SAMPLE MASS /mg:9.99
#MATERIAL:
#REFERENCE:
#REFERENCE MASS /mg:0
#TYPE OF CRUCIBLE:DSC/TG pan Al2O3
#SAMPLE CRUCIBLE MASS /mg:0
#REFERENCE CRUCIBLE MASS /mg:0
#DSC RANGE /V:5000
#TG RANGE /mg:5000
#TAU-R:---
#CORR. CODE:020
#EXO:+1
#RANGE:35C/00:00/35C/5,0(K/min)/920C/
#SEGMENT:S1-2/2
#SEG. 1:35C/00:15/35C
#SEG. 2:35C/5,0(K/min)/920C

##Temp./C;Time/min;DSC/(uV/mg);Sensit./(uV/mW);Segment
34.17636;0.25;6.08091e-68;1.0;1
34.17971;0.5;6.09207e-68;1.0;1
34.17888;0.75;6.0893e-68;1.0;1
34.17688;1.0;6.08264e-68;1.0;1
34.17253;1.25;6.06818e-68;1.0;1
34.17059;1.5;6.06174e-68;1.0;1
34.16876;1.75;6.05567e-68;1.0;1
34.16682;2.0;6.04925e-68;1.0;1
34.16441;2.25;6.04127e-68;1.0;1
34.16576;2.5;6.04574e-68;1.0;1
34.17024;2.75;6.06058e-68;1.0;1
34.16623;3.0;6.04729e-68;1.0;1
34.16288;3.25;6.03622e-68;1.0;1
34.16018;3.5;6.02731e-68;1.0;1
34.158;3.75;6.02012e-68;1.0;1
34.16165;4.0;6.03216e-68;1.0;1
34.16312;4.25;6.03701e-68;1.0;1
34.16582;4.5;6.04594e-68;1.0;1
34.16759;4.75;6.0518e-68;1.0;1
34.16271;5.0;6.03566e-68;1.0;1
34.15965;5.25;6.02556e-68;1.0;1
34.15641;5.5;6.01488e-68;1.0;1
34.15535;5.75;6.0114e-68;1.0;1
34.15588;6.0;6.01314e-68;1.0;1
34.15641;6.25;6.01488e-68;1.0;1
34.15753;6.5;6.01857e-68;1.0;1
34.15565;6.75;6.01238e-68;1.0;1
34.15471;7.0;6.00929e-68;1.0;1
34.15547;7.25;6.01179e-68;1.0;1
34.15894;7.5;6.02322e-68;1.0;1
34.15988;7.75;6.02632e-68;1.0;1
34.157;8.0;6.01683e-68;1.0;1
34.15382;8.25;6.00636e-68;1.0;1
34.15247;8.5;6.00193e-68;1.0;1
34.15324;8.75;6.00446e-68;1.0;1
34.15406;9.0;6.00715e-68;1.0;1
34.15082;9.25;5.99651e-68;1.0;1
34.15171;9.5;5.99943e-68;1.0;1
34.15165;9.75;5.99924e-68;1.0;1
34.15165;10.0;5.99924e-68;1.0;1
34.15094;10.25;5.99691e-68;1.0;1
34.14553;10.5;5.97918e-68;1.0;1
34.14282;10.75;5.97032e-68;1.0;1
34.14235;11.0;5.96878e-68;1.0;1
34.13906;11.25;5.95804e-68;1.0;1
34.13618;11.5;5.94866e-68;1.0;1
34.13253;11.75;5.93679e-68;1.0;1
34.12859;12.0;5.924e-68;1.0;1
34.12518;12.25;5.91296e-68;1.0;1
34.12371;12.5;5.9082e-68;1.0;1
34.123;12.75;5.90591e-68;1.0;1
34.12447;13.0;5.91066e-68;1.0;1
34.12429;13.25;5.91008e-68;1.0;1
34.12471;13.5;5.91144e-68;1.0;1
34.12024;13.75;5.89699e-68;1.0;1
34.115;14.0;5.88011e-68;1.0;1
34.10647;14.25;5.85272e-68;1.0;1
34.10235;14.5;5.83954e-68;1.0;1
34.10264;14.75;5.84047e-68;1.0;1
34.11549;15.0;5.88169e-68;1.0;2
34.10516;15.25;5.84853e-68;1.0;2
34.13672;15.5;5.95042e-68;1.0;2
34.23371;15.75;6.27476e-68;1.0;2
34.42622;16.0;6.97165e-68;1.0;2
34.72104;16.25;8.19127e-68;1.0;2
35.12375;16.5;1.02078e-67;1.0;2
35.61708;16.75;1.33637e-67;1.0;2
36.1925;17.0;1.82919e-67;1.0;2
36.83655;17.25;2.59829e-67;1.0;2
37.54164;17.5;3.81385e-67;1.0;2
38.29774;17.75;5.75263e-67;1.0;2
39.09878;18.0;8.88622e-67;1.0;2
39.94421;18.25;1.40521e-66;1.0;2
40.82469;18.5;2.26307e-66;1.0;2
41.7454;18.75;3.72188e-66;1.0;2
42.69183;19.0;6.20142e-66;1.0;2
43.66753;19.25;1.04878e-65;1.0;2
44.66731;19.5;1.79513e-65;1.0;2
45.6928;19.75;3.11225e-65;1.0;2
46.74168;20.0;5.45817e-65;1.0;2
47.8057;20.25;9.63983e-65;1.0;2
48.88834;20.5;1.71762e-64;1.0;2
49.98967;20.75;3.08753e-64;1.0;2
51.10446;21.0;5.58328e-64;1.0;2
52.23305;21.25;1.01583e-63;1.0;2
53.37523;21.5;1.85926e-63;1.0;2
54.5253;21.75;3.41287e-63;1.0;2
55.68474;22.0;6.28761e-63;1.0;2
56.85935;22.25;1.16614e-62;1.0;2
58.04364;22.5;2.17089e-62;1.0;2
59.23476;22.75;4.05031e-62;1.0;2
60.43665;23.0;7.58902e-62;1.0;2
61.64896;23.25;1.42769e-61;1.0;2
62.86358;23.5;2.68525e-61;1.0;2
64.0847;23.75;5.06036e-61;1.0;2
65.30787;24.0;9.53264e-61;1.0;2
66.53528;24.25;1.79708e-60;1.0;2
67.76738;24.5;3.39108e-60;1.0;2
69.00398;24.75;6.40435e-60;1.0;2
70.24448;25.0;1.21015e-59;1.0;2
71.48621;25.25;2.28471e-59;1.0;2
72.72937;25.5;4.31014e-59;1.0;2
73.97395;25.75;8.12491e-59;1.0;2
75.22398;26.0;1.53355e-58;1.0;2
76.46965;26.25;2.88377e-58;1.0;2
77.71669;26.5;5.41845e-58;1.0;2
78.96561;26.75;1.01753e-57;1.0;2
80.21691;27.0;1.91023e-57;1.0;2
81.47146;27.25;3.58654e-57;1.0;2
82.72618;27.5;6.72423e-57;1.0;2
83.9838;27.75;1.2606e-56;1.0;2
85.24469;28.0;2.3635e-56;1.0;2
86.50762;28.25;4.42901e-56;1.0;2
87.77336;28.5;8.29838e-56;1.0;2
89.03755;28.75;1.55123e-55;1.0;2
90.30329;29.0;2.89747e-55;1.0;2
91.5698;29.25;5.40574e-55;1.0;2
92.84121;29.5;1.0094e-54;1.0;2
94.11325;29.75;1.88246e-54;1.0;2
95.38379;30.0;3.50261e-54;1.0;2
96.65528;30.25;6.51001e-54;1.0;2
97.92917;30.5;1.20948e-53;1.0;2
99.20502;30.75;2.24569e-53;1.0;2
100.482;31.0;4.16511e-53;1.0;2
101.761;31.25;7.72151e-53;1.0;2
103.0401;31.5;1.42914e-52;1.0;2
104.318;31.75;2.63947e-52;1.0;2
105.595;32.0;4.86469e-52;1.0;2
106.873;32.25;8.9563e-52;1.0;2
108.15;32.5;1.64552e-51;1.0;2
109.424;32.75;3.01499e-51;1.0;2
110.698;33.0;5.51507e-51;1.0;2
111.973;33.25;1.00735e-50;1.0;2
113.248;33.5;1.83751e-50;1.0;2
114.5243;33.75;3.34918e-50;1.0;2
115.8;34.0;6.09199e-50;1.0;2
117.071;34.25;1.10382e-49;1.0;2
118.344;34.5;1.9997e-49;1.0;2
119.615;34.75;3.61255e-49;1.0;2
120.886;35.0;6.51655e-49;1.0;2
122.16;35.25;1.17511e-48;1.0;2
123.434;35.5;2.11591e-48;1.0;2
124.708;35.75;3.80343e-48;1.0;2
125.984;36.0;6.83425e-48;1.0;2
127.259;36.25;1.22499e-47;1.0;2
128.536;36.5;2.19505e-47;1.0;2
129.815;36.75;3.93084e-47;1.0;2
131.096;37.0;7.03178e-47;1.0;2
132.375;37.25;1.25555e-46;1.0;2
133.6561;37.5;2.23925e-46;1.0;2
134.935;37.75;3.98343e-46;1.0;2
136.213;38.0;7.07359e-46;1.0;2
137.494;38.25;1.25577e-45;1.0;2
138.773;38.5;2.22415e-45;1.0;2
140.055;38.75;3.93665e-45;1.0;2
141.336;39.0;6.95673e-45;1.0;2
142.619;39.25;1.22809e-44;1.0;2
143.902;39.5;2.1651e-44;1.0;2
145.189;39.75;3.81831e-44;1.0;2
146.477;40.0;6.72348e-44;1.0;2
147.764;40.25;1.1815e-43;1.0;2
149.052;40.5;2.07417e-43;1.0;2
150.3408;40.75;3.63633e-43;1.0;2
151.63;41.0;6.36541e-43;1.0;2
152.914;41.25;1.11037e-42;1.0;2
154.201;41.5;1.93607e-42;1.0;2
155.491;41.75;3.37316e-42;1.0;2
156.779;42.0;5.86508e-42;1.0;2
158.066;42.25;1.01758e-41;1.0;2
159.352;42.5;1.76229e-41;1.0;2
160.638;42.75;3.0462e-41;1.0;2
161.923;43.0;5.25756e-41;1.0;2
163.2086;43.25;9.05733e-41;1.0;2
164.4928;43.5;1.55719e-40;1.0;2
165.782;43.75;2.67805e-40;1.0;2
167.069;44.0;4.59656e-40;1.0;2
168.35;44.25;7.8525e-40;1.0;2
169.63;44.5;1.3393e-39;1.0;2
170.916;44.75;2.28552e-39;1.0;2
172.2;45.0;3.89199e-39;1.0;2
173.484;45.25;6.61752e-39;1.0;2
174.772;45.5;1.12491e-38;1.0;2
176.055;45.75;1.9061e-38;1.0;2
177.339;46.0;3.2249e-38;1.0;2
178.6242;46.25;5.44955e-38;1.0;2
179.907;46.5;9.18794e-38;1.0;2
181.188;46.75;1.5452e-37;1.0;2
182.47;47.0;2.59546e-37;1.0;2
183.751;47.25;4.35116e-37;1.0;2
185.034;47.5;7.28988e-37;1.0;2
186.318;47.75;1.21954e-36;1.0;2
187.6;48.0;2.03568e-36;1.0;2
188.884;48.25;3.39515e-36;1.0;2
190.169;48.5;5.6571e-36;1.0;2
191.455;48.75;9.413e-36;1.0;2
192.741;49.0;1.56339e-35;1.0;2
194.027;49.25;2.59364e-35;1.0;2
195.314;49.5;4.2953e-35;1.0;2
196.596;49.75;7.09184e-35;1.0;2
197.878;50.0;1.16888e-34;1.0;2
199.164;50.25;1.9262e-34;1.0;2
200.448;50.5;3.16649e-34;1.0;2
201.731;50.75;5.19731e-34;1.0;2
203.018;51.0;8.52604e-34;1.0;2
204.303;51.25;1.39599e-33;1.0;2
205.589;51.5;2.28221e-33;1.0;2
206.875;51.75;3.72545e-33;1.0;2
208.16;52.0;6.06812e-33;1.0;2
209.443;52.25;9.86444e-33;1.0;2
210.727;52.5;1.60092e-32;1.0;2
212.011;52.75;2.59474e-32;1.0;2
213.2936;53.0;4.19668e-32;1.0;2
214.5738;53.25;6.77048e-32;1.0;2
215.857;53.5;1.09174e-31;1.0;2
217.1376;53.75;1.75603e-31;1.0;2
218.417;54.0;2.81865e-31;1.0;2
219.696;54.25;4.51692e-31;1.0;2
220.974;54.5;7.22409e-31;1.0;2
222.254;54.75;1.15414e-30;1.0;2
223.532;55.0;1.84041e-30;1.0;2
224.81;55.25;2.92928e-30;1.0;2
226.091;55.5;4.65931e-30;1.0;2
227.368;55.75;7.39248e-30;1.0;2
228.648;56.0;1.17165e-29;1.0;2
229.928;56.25;1.85469e-29;1.0;2
231.206;56.5;2.92947e-29;1.0;2
232.486;56.75;4.62091e-29;1.0;2
233.765;57.0;7.27873e-29;1.0;2
235.045;57.25;1.14462e-28;1.0;2
236.323;57.5;1.79639e-28;1.0;2
237.601;57.75;2.81417e-28;1.0;2
238.878;58.0;4.40093e-28;1.0;2
240.155;58.25;6.87253e-28;1.0;2
241.433;58.5;1.07178e-27;1.0;2
242.71;58.75;1.668e-27;1.0;2
243.985;59.0;2.59039e-27;1.0;2
245.262;59.25;4.01853e-27;1.0;2
246.539;59.5;6.22398e-27;1.0;2
247.816;59.75;9.62719e-27;1.0;2
249.096;60.0;1.48819e-26;1.0;2
250.374;60.25;2.29529e-26;1.0;2
251.654;60.5;3.53677e-26;1.0;2
252.931;60.75;5.43522e-26;1.0;2
254.205;61.0;8.33299e-26;1.0;2
255.482;61.25;1.27651e-25;1.0;2
256.759;61.5;1.95294e-25;1.0;2
258.036;61.75;2.98196e-25;1.0;2
259.311;62.0;4.54399e-25;1.0;2
260.5913;62.25;6.92643e-25;1.0;2
261.867;62.5;1.05249e-24;1.0;2
263.142;62.75;1.5962e-24;1.0;2
264.4204;63.0;2.41974e-24;1.0;2
265.7;63.25;3.66348e-24;1.0;2
266.978;63.5;5.5357e-24;1.0;2
268.256;63.75;8.35222e-24;1.0;2
269.535;64.0;1.25854e-23;1.0;2
270.812;64.25;1.89184e-23;1.0;2
272.086;64.5;2.83705e-23;1.0;2
273.359;64.75;4.24661e-23;1.0;2
274.632;65.0;6.34542e-23;1.0;2
275.906;65.25;9.47178e-23;1.0;2
277.181;65.5;1.41199e-22;1.0;2
278.456;65.75;2.10119e-22;1.0;2
279.729;66.0;3.12078e-22;1.0;2
281.006;66.25;4.63293e-22;1.0;2
282.284;66.5;6.8699e-22;1.0;2
283.56;66.75;1.01621e-21;1.0;2
284.836;67.0;1.50127e-21;1.0;2
286.111;67.25;2.21354e-21;1.0;2
287.388;67.5;3.25999e-21;1.0;2
288.666;67.75;4.79553e-21;1.0;2
289.94;68.0;7.03576e-21;1.0;2
291.213;68.25;1.03015e-20;1.0;2
292.485;68.5;1.50565e-20;1.0;2
293.757;68.75;2.19709e-20;1.0;2
295.031;69.0;3.20316e-20;1.0;2
296.307;69.25;4.66562e-20;1.0;2
297.582;69.5;6.78178e-20;1.0;2
298.8559;69.75;9.84e-20;1.0;2
300.129;70.0;1.42519e-19;1.0;2
301.402;70.25;2.06075e-19;1.0;2
302.675;70.5;2.9754e-19;1.0;2
303.947;70.75;4.28788e-19;1.0;2
305.218;71.0;6.16786e-19;1.0;2
306.486;71.25;8.85187e-19;1.0;2
307.755;71.5;1.26854e-18;1.0;2
309.028;71.75;1.81709e-18;1.0;2
310.299;72.0;2.59716e-18;1.0;2
311.568;72.25;3.70495e-18;1.0;2
312.838;72.5;5.27802e-18;1.0;2
314.107;72.75;7.50617e-18;1.0;2
315.373;73.0;1.06491e-17;1.0;2
316.642;73.25;1.50965e-17;1.0;2
317.912;73.5;2.13737e-17;1.0;2
319.1809;73.75;3.02052e-17;1.0;2
320.449;74.0;4.26107e-17;1.0;2
321.7193;74.25;6.00513e-17;1.0;2
322.988;74.5;8.4461e-17;1.0;2
324.258;74.75;1.18657e-16;1.0;2
325.526;75.0;1.66357e-16;1.0;2
326.7946;75.25;2.32876e-16;1.0;2
328.063;75.5;3.25493e-16;1.0;2
329.332;75.75;4.54284e-16;1.0;2
330.599;76.0;6.328e-16;1.0;2
331.868;76.25;8.80351e-16;1.0;2
333.139;76.5;1.22391e-15;1.0;2
334.409;76.75;1.69798e-15;1.0;2
335.672;77.0;2.34823e-15;1.0;2
336.935;77.25;3.24215e-15;1.0;2
338.201;77.5;4.47186e-15;1.0;2
339.467;77.75;6.16044e-15;1.0;2
340.734;78.0;8.47556e-15;1.0;2
342.001;78.25;1.16412e-14;1.0;2
343.267;78.5;1.59609e-14;1.0;2
344.533;78.75;2.18488e-14;1.0;2
345.801;79.0;2.98771e-14;1.0;2
347.068;79.25;4.07856e-14;1.0;2
348.3319;79.5;5.55487e-14;1.0;2
349.596;79.75;7.55468e-14;1.0;2
350.862;80.0;1.02611e-13;1.0;2
352.1271;80.25;1.39146e-13;1.0;2
353.392;80.5;1.8837e-13;1.0;2
354.658;80.75;2.54705e-13;1.0;2
355.923;81.0;3.43798e-13;1.0;2
357.19;81.25;4.63475e-13;1.0;2
358.457;81.5;6.23936e-13;1.0;2
359.7225;81.75;8.38382e-13;1.0;2
360.985;82.0;1.12401e-12;1.0;2
362.2481;82.25;1.50465e-12;1.0;2
363.513;82.5;2.01221e-12;1.0;2
364.776;82.75;2.68543e-12;1.0;2
366.039;83.0;3.57839e-12;1.0;2
367.303;83.25;4.76176e-12;1.0;2
368.565;83.5;6.32386e-12;1.0;2
369.826;83.75;8.38418e-12;1.0;2
371.086;84.0;1.10973e-11;1.0;2
372.3491;84.25;1.46729e-11;1.0;2
373.6113;84.5;1.93687e-11;1.0;2
374.87;84.75;2.55108e-11;1.0;2
376.134;85.0;3.3584e-11;1.0;2
377.3972;85.25;4.41349e-11;1.0;2
378.66;85.5;5.79091e-11;1.0;2
379.921;85.75;7.58349e-11;1.0;2
381.179;86.0;9.91008e-11;1.0;2
382.438;86.25;1.29333e-10;1.0;2
383.7;86.5;1.68608e-10;1.0;2
384.959;86.75;2.19362e-10;1.0;2
386.2178;87.0;2.84974e-10;1.0;2
387.478;87.25;3.69749e-10;1.0;2
388.738;87.5;4.78905e-10;1.0;2
389.998;87.75;6.19399e-10;1.0;2
391.254;88.0;7.99269e-10;1.0;2
392.51;88.25;1.02968e-09;1.0;2
393.773;88.5;1.32641e-09;1.0;2
395.0354;88.75;1.70582e-09;1.0;2
396.297;89.0;2.19011e-09;1.0;2
397.556;89.25;2.80625e-09;1.0;2
398.817;89.5;3.59116e-09;1.0;2
400.079;89.75;4.58957e-09;1.0;2
401.34;90.0;5.85554e-09;1.0;2
402.599;90.25;7.4564e-09;1.0;2
403.858;90.5;9.48185e-09;1.0;2
405.119;90.75;1.20419e-08;1.0;2
406.379;91.0;1.52661e-08;1.0;2
407.638;91.25;1.93219e-08;1.0;2
408.901;91.5;2.44358e-08;1.0;2
410.16;91.75;3.08298e-08;1.0;2
411.418;92.0;3.88332e-08;1.0;2
412.676;92.25;4.88413e-08;1.0;2
413.935;92.5;6.1344e-08;1.0;2
415.192;92.75;7.68941e-08;1.0;2
416.4495;93.0;9.62631e-08;1.0;2
417.706;93.25;1.203e-07;1.0;2
418.9638;93.5;1.50139e-07;1.0;2
420.221;93.75;1.87085e-07;1.0;2
421.478;94.0;2.32732e-07;1.0;2
422.7334;94.25;2.89025e-07;1.0;2
423.99;94.5;3.58441e-07;1.0;2
425.248;94.75;4.43979e-07;1.0;2
426.506;95.0;5.491e-07;1.0;2
427.762;95.25;6.7784e-07;1.0;2
429.019;95.5;8.35553e-07;1.0;2
430.275;95.75;1.02822e-06;1.0;2
431.534;96.0;1.26424e-06;1.0;2
432.795;96.25;1.55237e-06;1.0;2
434.053;96.5;1.9023e-06;1.0;2
435.313;96.75;2.32803e-06;1.0;2
436.573;97.0;2.84532e-06;1.0;2
437.835;97.25;3.47295e-06;1.0;2
439.093;97.5;4.22952e-06;1.0;2
440.3477;97.75;5.14104e-06;1.0;2
441.604;98.0;6.24114e-06;1.0;2
442.859;98.25;7.56256e-06;1.0;2
444.117;98.5;9.15549e-06;1.0;2
445.377;98.75;1.10686e-05;1.0;2
446.638;99.0;1.33637e-05;1.0;2
447.8979;99.25;1.61084e-05;1.0;2
449.159;99.5;1.939e-05;1.0;2
450.419;99.75;2.32994e-05;1.0;2
451.676;100.0;2.79445e-05;1.0;2
452.933;100.25;3.34631e-05;1.0;2
454.189;100.5;4.00017e-05;1.0;2
455.4418;100.75;4.77262e-05;1.0;2
456.696;101.0;5.68696e-05;1.0;2
457.9502;101.25;6.76572e-05;1.0;2
459.202;101.5;8.03438e-05;1.0;2
460.455;101.75;9.52888e-05;1.0;2
461.713;102.0;0.000112904;1.0;2
462.968;102.25;0.000133525;1.0;2
464.222;102.5;0.00015765;1.0;2
465.4741;102.75;0.000185812;1.0;2
466.727;103.0;0.000218694;1.0;2
467.98;103.25;0.000256998;1.0;2
469.233;103.5;0.000301549;1.0;2
470.486;103.75;0.000353324;1.0;2
471.739;104.0;0.000413323;1.0;2
472.992;104.25;0.00048279;1.0;2
474.243;104.5;0.000562967;1.0;2
475.4947;104.75;0.000655479;1.0;2
476.747;105.0;0.000762095;1.0;2
477.9978;105.25;0.000884592;1.0;2
479.249;105.5;0.00102524;1.0;2
480.501;105.75;0.00118664;1.0;2
481.753;106.0;0.00137127;1.0;2
483.006;106.25;0.00158235;1.0;2
484.256;106.5;0.00182282;1.0;2
485.507;106.75;0.00209663;1.0;2
486.76;107.0;0.00240865;1.0;2
488.013;107.25;0.0027627;1.0;2
489.266;107.5;0.00316405;1.0;2
490.52;107.75;0.00361867;1.0;2
491.772;108.0;0.00413152;1.0;2
493.024;108.25;0.00470969;1.0;2
494.278;108.5;0.00536179;1.0;2
495.531;108.75;0.0060944;1.0;2
496.782;109.0;0.00691534;1.0;2
498.034;109.25;0.00783636;1.0;2
499.287;109.5;0.00886658;1.0;2
500.541;109.75;0.0100181;1.0;2
501.7957;110.0;0.0113026;1.0;2
503.048;110.25;0.0127303;1.0;2
504.301;110.5;0.0143163;1.0;2
505.554;110.75;0.0160759;1.0;2
506.804;111.0;0.0180211;1.0;2
508.055;111.25;0.0201707;1.0;2
509.307;111.5;0.0225464;1.0;2
510.562;111.75;0.0251687;1.0;2
511.798;112.0;0.028009;1.0;2
513.034;112.25;0.0311241;1.0;2
514.314;112.5;0.0346624;1.0;2
515.603;112.75;0.0385666;1.0;2
516.891;113.0;0.0428425;1.0;2
518.177;113.25;0.0475061;1.0;2
519.459;113.5;0.0525796;1.0;2
520.74;113.75;0.0580944;1.0;2
522.021;114.0;0.0640889;1.0;2
523.318;114.25;0.0706734;1.0;2
524.658;114.5;0.0780541;1.0;2
526.025;114.75;0.086222;1.0;2
527.4373;115.0;0.0953791;1.0;2
528.914;115.25;0.105781;1.0;2
530.34;115.5;0.116665;1.0;2
531.691;115.75;0.127777;1.0;2
533;116.0;0.139312;1.0;2
534.277;116.25;0.151331;1.0;2
535.532;116.5;0.163899;1.0;2
536.77;116.75;0.17706;1.0;2
537.996;117.0;0.190858;1.0;2
539.218;117.25;0.205379;1.0;2
540.437;117.5;0.220645;1.0;2
541.654;117.75;0.236683;1.0;2
542.871;118.0;0.25352;1.0;2
544.086;118.25;0.27114;1.0;2
545.2994;118.5;0.28955;1.0;2
546.514;118.75;0.308787;1.0;2
547.731;119.0;0.328868;1.0;2
548.947;119.25;0.349751;1.0;2
550.163;119.5;0.371414;1.0;2
551.381;119.75;0.393896;1.0;2
552.601;120.0;0.417183;1.0;2
553.823;120.25;0.441253;1.0;2
555.046;120.5;0.466062;1.0;2
556.2706;120.75;0.491581;1.0;2
557.497;121.0;0.517791;1.0;2
558.723;121.25;0.544591;1.0;2
559.947;121.5;0.571917;1.0;2
561.172;121.75;0.599754;1.0;2
562.398;122.0;0.628059;1.0;2
563.624;122.25;0.656757;1.0;2
564.8499;122.5;0.685761;1.0;2
566.077;122.75;0.71504;1.0;2
567.305;123.0;0.744489;1.0;2
568.536;123.25;0.774109;1.0;2
569.766;123.5;0.803715;1.0;2
570.995;123.75;0.833215;1.0;2
572.223;124.0;0.862483;1.0;2
573.451;124.25;0.891498;1.0;2
574.685;124.5;0.920287;1.0;2
575.917;124.75;0.948573;1.0;2
577.149;125.0;0.976282;1.0;2
578.389;125.25;1.00351;1.0;2
579.631;125.5;1.03001;1.0;2
580.8682;125.75;1.05554;1.0;2
582.1069;126.0;1.08013;1.0;2
583.346;126.25;1.10365;1.0;2
584.581;126.5;1.12596;1.0;2
585.816;126.75;1.14702;1.0;2
587.052;127.0;1.16677;1.0;2
588.2876;127.25;1.1851;1.0;2
589.524;127.5;1.20196;1.0;2
590.7589;127.75;1.21725;1.0;2
591.998;128.0;1.23096;1.0;2
593.24;128.25;1.24299;1.0;2
594.481;128.5;1.25328;1.0;2
595.723;128.75;1.26177;1.0;2
596.964;129.0;1.26844;1.0;2
598.207;129.25;1.27324;1.0;2
599.451;129.5;1.27616;1.0;2
600.693;129.75;1.27717;1.0;2
601.936;130.0;1.27628;1.0;2
603.178;130.25;1.2735;1.0;2
604.421;130.5;1.26882;1.0;2
605.666;130.75;1.26226;1.0;2
606.909;131.0;1.25388;1.0;2
608.15;131.25;1.2437;1.0;2
609.393;131.5;1.23176;1.0;2
610.636;131.75;1.21812;1.0;2
611.878;132.0;1.20284;1.0;2
613.123;132.25;1.18594;1.0;2
614.366;132.5;1.16756;1.0;2
615.6071;132.75;1.14778;1.0;2
616.8482;133.0;1.12666;1.0;2
618.089;133.25;1.10429;1.0;2
619.3303;133.5;1.08075;1.0;2
620.572;133.75;1.05611;1.0;2
621.815;134.0;1.03049;1.0;2
623.054;134.25;1.00409;1.0;2
624.294;134.5;0.976883;1.0;2
625.534;134.75;0.948989;1.0;2
626.776;135.0;0.920497;1.0;2
628.015;135.25;0.891588;1.0;2
629.254;135.5;0.862317;1.0;2
630.492;135.75;0.832786;1.0;2
631.726;136.0;0.803159;1.0;2
632.962;136.25;0.773433;1.0;2
634.196;136.5;0.743725;1.0;2
635.431;136.75;0.714118;1.0;2
636.6665;137.0;0.684639;1.0;2
637.901;137.25;0.655437;1.0;2
639.138;137.5;0.626515;1.0;2
640.374;137.75;0.59799;1.0;2
641.611;138.0;0.569917;1.0;2
642.848;138.25;0.542343;1.0;2
644.087;138.5;0.51532;1.0;2
645.323;138.75;0.488968;1.0;2
646.558;139.0;0.463291;1.0;2
647.793;139.25;0.438332;1.0;2
649.027;139.5;0.414103;1.0;2
650.261;139.75;0.390655;1.0;2
651.493;140.0;0.368031;1.0;2
652.725;140.25;0.346204;1.0;2
653.958;140.5;0.325188;1.0;2
655.188;140.75;0.305042;1.0;2
656.4166;141.0;0.28574;1.0;2
657.646;141.25;0.267263;1.0;2
658.874;141.5;0.249635;1.0;2
660.101;141.75;0.23284;1.0;2
661.33;142.0;0.21684;1.0;2
662.559;142.25;0.201645;1.0;2
663.787;142.5;0.187257;1.0;2
665.017;142.75;0.173612;1.0;2
666.247;143.0;0.160726;1.0;2
667.4744;143.25;0.148611;1.0;2
668.703;143.5;0.137196;1.0;2
669.931;143.75;0.126477;1.0;2
671.154;144.0;0.116465;1.0;2
672.376;144.25;0.107102;1.0;2
673.597;144.5;0.0983496;1.0;2
674.8184;144.75;0.0901865;1.0;2
676.039;145.0;0.082585;1.0;2
677.258;145.25;0.0755222;1.0;2
678.477;145.5;0.0689675;1.0;2
679.697;145.75;0.0628845;1.0;2
680.915;146.0;0.0572629;1.0;2
682.131;146.25;0.0520798;1.0;2
683.346;146.5;0.0473022;1.0;2
684.56;146.75;0.0429057;1.0;2
685.775;147.0;0.0388564;1.0;2
686.986;147.25;0.0351545;1.0;2
688.196;147.5;0.0317597;1.0;2
689.407;147.75;0.0286526;1.0;2
690.618;148.0;0.0258114;1.0;2
691.831;148.25;0.0232152;1.0;2
693.043;148.5;0.0208523;1.0;2
694.256;148.75;0.0187008;1.0;2
695.473;149.0;0.0167417;1.0;2
696.694;149.25;0.0149614;1.0;2
697.916;149.5;0.0133499;1.0;2
699.142;149.75;0.0118903;1.0;2
700.371;150.0;0.0105717;1.0;2
701.601;150.25;0.00938461;1.0;2
702.831;150.5;0.00831894;1.0;2
704.06;150.75;0.00736346;1.0;2
705.291;151.0;0.00650784;1.0;2
706.526;151.25;0.0057405;1.0;2
707.761;151.5;0.00505588;1.0;2
708.999;151.75;0.00444523;1.0;2
710.236;152.0;0.00390318;1.0;2
711.471;152.25;0.0034226;1.0;2
712.7091;152.5;0.00299598;1.0;2
713.945;152.75;0.00261921;1.0;2
715.181;153.0;0.00228653;1.0;2
716.416;153.25;0.00199318;1.0;2
717.649;153.5;0.00173531;1.0;2
718.885;153.75;0.00150813;1.0;2
720.121;154.0;0.00130885;1.0;2
721.3571;154.25;0.00113412;1.0;2
722.592;154.5;0.000981405;1.0;2
723.827;154.75;0.000848052;1.0;2
725.061;155.0;0.000731731;1.0;2
726.296;155.25;0.000630447;1.0;2
727.532;155.5;0.000542283;1.0;2
728.769;155.75;0.000465683;1.0;2
730.006;156.0;0.000399346;1.0;2
731.242;156.25;0.000341989;1.0;2
732.478;156.5;0.000292428;1.0;2
733.712;156.75;0.000249742;1.0;2
734.95;157.0;0.00021288;1.0;2
736.187;157.25;0.000181217;1.0;2
737.423;157.5;0.000154037;1.0;2
738.661;157.75;0.00013071;1.0;2
739.898;158.0;0.000110771;1.0;2
741.135;158.25;9.37333e-05;1.0;2
742.371;158.5;7.92132e-05;1.0;2
743.607;158.75;6.68422e-05;1.0;2
744.842;159.0;5.63271e-05;1.0;2
746.0747;159.25;4.74104e-05;1.0;2
747.308;159.5;3.98469e-05;1.0;2
748.542;159.75;3.34326e-05;1.0;2
749.774;160.0;2.80203e-05;1.0;2
751.007;160.25;2.3447e-05;1.0;2
752.241;160.5;1.95874e-05;1.0;2
753.474;160.75;1.63425e-05;1.0;2
754.709;161.0;1.36096e-05;1.0;2
755.944;161.25;1.13169e-05;1.0;2
757.179;161.5;9.39856e-06;1.0;2
758.412;161.75;7.79454e-06;1.0;2
759.647;162.0;6.45396e-06;1.0;2
760.88;162.25;5.33653e-06;1.0;2
762.116;162.5;4.40472e-06;1.0;2
763.351;162.75;3.63079e-06;1.0;2
764.587;163.0;2.98791e-06;1.0;2
765.823;163.25;2.45521e-06;1.0;2
767.059;163.5;2.01474e-06;1.0;2
768.295;163.75;1.65061e-06;1.0;2
769.532;164.0;1.35018e-06;1.0;2
770.77;164.25;1.10264e-06;1.0;2
772.008;164.5;8.99032e-07;1.0;2
773.247;164.75;7.31938e-07;1.0;2
774.484;165.0;5.95082e-07;1.0;2
775.722;165.25;4.83094e-07;1.0;2
776.962;165.5;3.91468e-07;1.0;2
778.1998;165.75;3.16881e-07;1.0;2
779.436;166.0;2.56182e-07;1.0;2
780.671;166.25;2.06841e-07;1.0;2
781.905;166.5;1.66802e-07;1.0;2
783.14;166.75;1.34289e-07;1.0;2
784.3755;167.0;1.07937e-07;1.0;2
785.609;167.25;8.66612e-08;1.0;2
786.842;167.5;6.9491e-08;1.0;2
788.077;167.75;5.56161e-08;1.0;2
789.312;168.0;4.44394e-08;1.0;2
790.548;168.25;3.54601e-08;1.0;2
791.782;168.5;2.82567e-08;1.0;2
793.017;168.75;2.24812e-08;1.0;2
794.255;169.0;1.78503e-08;1.0;2
795.493;169.25;1.41532e-08;1.0;2
796.729;169.5;1.12076e-08;1.0;2
797.966;169.75;8.86164e-09;1.0;2
799.2;170.0;7.00003e-09;1.0;2
800.435;170.25;5.52014e-09;1.0;2
801.672;170.5;4.3459e-09;1.0;2
802.905;170.75;3.41838e-09;1.0;2
804.141;171.0;2.6831e-09;1.0;2
805.379;171.25;2.1025e-09;1.0;2
806.613;171.5;1.64615e-09;1.0;2
807.846;171.75;1.28738e-09;1.0;2
809.08;172.0;1.00495e-09;1.0;2
810.312;172.25;7.83752e-10;1.0;2
811.544;172.5;6.10312e-10;1.0;2
812.779;172.75;4.74272e-10;1.0;2
814.012;173.0;3.68101e-10;1.0;2
815.245;173.25;2.85362e-10;1.0;2
816.475;173.5;2.21004e-10;1.0;2
817.709;173.75;1.70779e-10;1.0;2
818.944;174.0;1.3174e-10;1.0;2
820.177;174.25;1.0151e-10;1.0;2
821.41;174.5;7.81113e-11;1.0;2
822.643;174.75;6.00127e-11;1.0;2
823.877;175.0;4.60324e-11;1.0;2
825.111;175.25;3.52542e-11;1.0;2
826.346;175.5;2.69571e-11;1.0;2
827.58;175.75;2.0586e-11;1.0;2
828.815;176.0;1.56928e-11;1.0;2
830.051;176.25;1.19454e-11;1.0;2
831.283;176.5;9.08575e-12;1.0;2
832.518;176.75;6.8956e-12;1.0;2
833.752;177.0;5.22755e-12;1.0;2
834.987;177.25;3.95567e-12;1.0;2
836.222;177.5;2.98942e-12;1.0;2
837.455;177.75;2.25662e-12;1.0;2
838.691;178.0;1.69996e-12;1.0;2
839.927;178.25;1.27855e-12;1.0;2
841.162;178.5;9.60379e-13;1.0;2
842.396;178.75;7.2056e-13;1.0;2
843.63;179.0;5.39872e-13;1.0;2
844.866;179.25;4.03702e-13;1.0;2
846.101;179.5;3.01447e-13;1.0;2
847.336;179.75;2.24833e-13;1.0;2
848.569;180.0;1.67463e-13;1.0;2
849.801;180.25;1.2461e-13;1.0;2
851.034;180.5;9.25563e-14;1.0;2
852.2652;180.75;6.86828e-14;1.0;2
853.5;181.0;5.08494e-14;1.0;2
854.7352;181.25;3.75803e-14;1.0;2
855.969;181.5;2.77429e-14;1.0;2
857.203;181.75;2.04534e-14;1.0;2
858.438;182.0;1.50521e-14;1.0;2
859.672;182.25;1.1063e-14;1.0;2
860.904;182.5;8.12238e-15;1.0;2
862.139;182.75;5.95209e-15;1.0;2
863.372;183.0;4.35614e-15;1.0;2
864.607;183.25;3.18217e-15;1.0;2
865.842;183.5;2.3211e-15;1.0;2
867.076;183.75;1.69103e-15;1.0;2
868.312;184.0;1.22955e-15;1.0;2
869.548;184.25;8.92741e-16;1.0;2
870.783;184.5;6.47376e-16;1.0;2
872.0177;184.75;4.68756e-16;1.0;2
873.2523;185.0;3.3895e-16;1.0;2
874.487;185.25;2.44745e-16;1.0;2
875.721;185.5;1.76486e-16;1.0;2
876.955;185.75;1.27058e-16;1.0;2
878.1884;186.0;9.13622e-17;1.0;2
879.421;186.25;6.56071e-17;1.0;2
880.653;186.5;4.70598e-17;1.0;2
881.887;186.75;3.36889e-17;1.0;2
883.121;187.0;2.40741e-17;1.0;2
884.353;187.25;1.71904e-17;1.0;2
885.587;187.5;1.22528e-17;1.0;2
886.822;187.75;8.71726e-18;1.0;2
888.055;188.0;6.19501e-18;1.0;2
889.289;188.25;4.39596e-18;1.0;2
890.521;188.5;3.11558e-18;1.0;2
891.756;188.75;2.20362e-18;1.0;2
892.986;189.0;1.55821e-18;1.0;2
894.216;189.25;1.10035e-18;1.0;2
895.45;189.5;7.74974e-19;1.0;2
896.682;189.75;5.45372e-19;1.0;2
897.912;190.0;3.83387e-19;1.0;2
899.145;190.25;2.68955e-19;1.0;2
900.3779;190.5;1.88371e-19;1.0;2
901.61;190.75;1.31759e-19;1.0;2
902.845;191.0;9.19635e-20;1.0;2
904.0798;191.25;6.40979e-20;1.0;2
905.315;191.5;4.45969e-20;1.0;2
906.55;191.75;3.09874e-20;1.0;2