File: src/data/kinetics/q5/peak_4.txt
#EXPORTTYPE:DATA SINGLE
#FILE:00592013__Al2O3_900_5_N2_20_air_20.ngb-ds1
#FTYPE:ANSI
#IDENTITY:005920
#DECIMAL:POINT
#SEPARATOR:SEMICOLON
#MTYPE:DSC
#PROJECT:
#DATE/TIME:21.07.2025 08:33
#CORR. FILE:005919_bline_Al2O3_900_5_N2_20_air_20.ngb-bs1
#TEMPCAL:TCALZERO.TCX
#SENSITIVITY:SENSZERO.EXX
#LABORATORY: 11
#OPERATOR:
#REMARK:
#SAMPLE:1
#SAMPLE MASS /mg:9.99
#MATERIAL:
#REFERENCE:
#REFERENCE MASS /mg:0
#TYPE OF CRUCIBLE:DSC/TG pan Al2O3
#SAMPLE CRUCIBLE MASS /mg:0
#REFERENCE CRUCIBLE MASS /mg:0
#DSC RANGE /V:5000
#TG RANGE /mg:5000
#TAU-R:---
#CORR. CODE:020
#EXO:+1
#RANGE:35C/00:00/35C/5,0(K/min)/920C/
#SEGMENT:S1-2/2
#SEG. 1:35C/00:15/35C
#SEG. 2:35C/5,0(K/min)/920C

##Temp./C;Time/min;DSC/(uV/mg);Sensit./(uV/mW);Segment
34.17636;0.25;1.22112e-229;1.0;1
34.17971;0.5;1.22816e-229;1.0;1
34.17888;0.75;1.22641e-229;1.0;1
34.17688;1.0;1.22221e-229;1.0;1
34.17253;1.25;1.21313e-229;1.0;1
34.17059;1.5;1.2091e-229;1.0;1
34.16876;1.75;1.20531e-229;1.0;1
34.16682;2.0;1.20131e-229;1.0;1
34.16441;2.25;1.19635e-229;1.0;1
34.16576;2.5;1.19913e-229;1.0;1
34.17024;2.75;1.20838e-229;1.0;1
34.16623;3.0;1.20009e-229;1.0;1
34.16288;3.25;1.19322e-229;1.0;1
34.16018;3.5;1.18771e-229;1.0;1
34.158;3.75;1.18328e-229;1.0;1
34.16165;4.0;1.19071e-229;1.0;1
34.16312;4.25;1.19371e-229;1.0;1
34.16582;4.5;1.19925e-229;1.0;1
34.16759;4.75;1.2029e-229;1.0;1
34.16271;5.0;1.19287e-229;1.0;1
34.15965;5.25;1.18663e-229;1.0;1
34.15641;5.5;1.18005e-229;1.0;1
34.15535;5.75;1.17791e-229;1.0;1
34.15588;6.0;1.17898e-229;1.0;1
34.15641;6.25;1.18005e-229;1.0;1
34.15753;6.5;1.18232e-229;1.0;1
34.15565;6.75;1.17852e-229;1.0;1
34.15471;7.0;1.17662e-229;1.0;1
34.15547;7.25;1.17815e-229;1.0;1
34.15894;7.5;1.18518e-229;1.0;1
34.15988;7.75;1.1871e-229;1.0;1
34.157;8.0;1.18125e-229;1.0;1
34.15382;8.25;1.17482e-229;1.0;1
34.15247;8.5;1.17211e-229;1.0;1
34.15324;8.75;1.17366e-229;1.0;1
34.15406;9.0;1.17531e-229;1.0;1
34.15082;9.25;1.1688e-229;1.0;1
34.15171;9.5;1.17058e-229;1.0;1
34.15165;9.75;1.17046e-229;1.0;1
34.15165;10.0;1.17046e-229;1.0;1
34.15094;10.25;1.16904e-229;1.0;1
34.14553;10.5;1.15824e-229;1.0;1
34.14282;10.75;1.15287e-229;1.0;1
34.14235;11.0;1.15194e-229;1.0;1
34.13906;11.25;1.14546e-229;1.0;1
34.13618;11.5;1.13982e-229;1.0;1
34.13253;11.75;1.1327e-229;1.0;1
34.12859;12.0;1.12508e-229;1.0;1
34.12518;12.25;1.11852e-229;1.0;1
34.12371;12.5;1.1157e-229;1.0;1
34.123;12.75;1.11434e-229;1.0;1
34.12447;13.0;1.11715e-229;1.0;1
34.12429;13.25;1.11681e-229;1.0;1
34.12471;13.5;1.11761e-229;1.0;1
34.12024;13.75;1.10908e-229;1.0;1
34.115;14.0;1.09916e-229;1.0;1
34.10647;14.25;1.0832e-229;1.0;1
34.10235;14.5;1.07557e-229;1.0;1
34.10264;14.75;1.0761e-229;1.0;1
34.11549;15.0;1.10008e-229;1.0;2
34.10516;15.25;1.08076e-229;1.0;2
34.13672;15.5;1.14087e-229;1.0;2
34.23371;15.75;1.34731e-229;1.0;2
34.42622;16.0;1.87414e-229;1.0;2
34.72104;16.25;3.10618e-229;1.0;2
35.12375;16.5;6.19124e-229;1.0;2
35.61708;16.75;1.44035e-228;1.0;2
36.1925;17.0;3.85302e-228;1.0;2
36.83655;17.25;1.15779e-227;1.0;2
37.54164;17.5;3.85624e-227;1.0;2
38.29774;17.75;1.39905e-226;1.0;2
39.09878;18.0;5.47032e-226;1.0;2
39.94421;18.25;2.30231e-225;1.0;2
40.82469;18.5;1.02629e-224;1.0;2
41.7454;18.75;4.88687e-224;1.0;2
42.69183;19.0;2.42467e-223;1.0;2
43.66753;19.25;1.26082e-222;1.0;2
44.66731;19.5;6.80968e-222;1.0;2
45.6928;19.75;3.82982e-221;1.0;2
46.74168;20.0;2.23367e-220;1.0;2
47.8057;20.25;1.33214e-219;1.0;2
48.88834;20.5;8.17047e-219;1.0;2
49.98967;20.75;5.15328e-218;1.0;2
51.10446;21.0;3.31283e-217;1.0;2
52.23305;21.25;2.17162e-216;1.0;2
53.37523;21.5;1.45088e-215;1.0;2
54.5253;21.75;9.78537e-215;1.0;2
55.68474;22.0;6.67814e-214;1.0;2
56.85935;22.25;4.6557e-213;1.0;2
58.04364;22.5;3.28528e-212;1.0;2
59.23476;22.75;2.33528e-211;1.0;2
60.43665;23.0;1.68292e-210;1.0;2
61.64896;23.25;1.22872e-209;1.0;2
62.86358;23.5;8.96808e-209;1.0;2
64.0847;23.75;6.58816e-208;1.0;2
65.30787;24.0;4.83583e-207;1.0;2
66.53528;24.25;3.55924e-206;1.0;2
67.76738;24.5;2.62856e-205;1.0;2
69.00398;24.75;1.94716e-204;1.0;2
70.24448;25.0;1.44533e-203;1.0;2
71.48621;25.25;1.07035e-202;1.0;2
72.72937;25.5;7.91071e-202;1.0;2
73.97395;25.75;5.83474e-201;1.0;2
75.22398;26.0;4.32253e-200;1.0;2
76.46965;26.25;3.16619e-199;1.0;2
77.71669;26.5;2.31422e-198;1.0;2
78.96561;26.75;1.68921e-197;1.0;2
80.21691;27.0;1.23229e-196;1.0;2
81.47146;27.25;8.99664e-196;1.0;2
82.72618;27.5;6.54118e-195;1.0;2
83.9838;27.75;4.75673e-194;1.0;2
85.24469;28.0;3.46161e-193;1.0;2
86.50762;28.25;2.516e-192;1.0;2
87.77336;28.5;1.8286e-191;1.0;2
89.03755;28.75;1.31989e-190;1.0;2
90.30329;29.0;9.50747e-190;1.0;2
91.5698;29.25;6.8261e-189;1.0;2
92.84121;29.5;4.91628e-188;1.0;2
94.11325;29.75;3.5283e-187;1.0;2
95.38379;30.0;2.51494e-186;1.0;2
96.65528;30.25;1.78718e-185;1.0;2
97.92917;30.5;1.26898e-184;1.0;2
99.20502;30.75;8.99656e-184;1.0;2
100.482;31.0;6.35904e-183;1.0;2
101.761;31.25;4.49016e-182;1.0;2
103.0401;31.5;3.15565e-181;1.0;2
104.318;31.75;2.20378e-180;1.0;2
105.595;32.0;1.52958e-179;1.0;2
106.873;32.25;1.05851e-178;1.0;2
108.15;32.5;7.28046e-178;1.0;2
109.424;32.75;4.96636e-177;1.0;2
110.698;33.0;3.37157e-176;1.0;2
111.973;33.25;2.2793e-175;1.0;2
113.248;33.5;1.53507e-174;1.0;2
114.5243;33.75;1.03173e-173;1.0;2
115.8;34.0;6.89256e-173;1.0;2
117.071;34.25;4.55039e-172;1.0;2
118.344;34.5;3.00387e-171;1.0;2
119.615;34.75;1.96627e-170;1.0;2
120.886;35.0;1.28159e-169;1.0;2
122.16;35.25;8.34823e-169;1.0;2
123.434;35.5;5.41502e-168;1.0;2
124.708;35.75;3.49501e-167;1.0;2
125.984;36.0;2.25413e-166;1.0;2
127.259;36.25;1.44308e-165;1.0;2
128.536;36.5;9.23401e-165;1.0;2
129.815;36.75;5.89969e-164;1.0;2
131.096;37.0;3.75837e-163;1.0;2
132.375;37.25;2.3812e-162;1.0;2
133.6561;37.5;1.50381e-161;1.0;2
134.935;37.75;9.42439e-161;1.0;2
136.213;38.0;5.87568e-160;1.0;2
137.494;38.25;3.66189e-159;1.0;2
138.773;38.5;2.26631e-158;1.0;2
140.055;38.75;1.40027e-157;1.0;2
141.336;39.0;8.6125e-157;1.0;2
142.619;39.25;5.28207e-156;1.0;2
143.902;39.5;3.2274e-155;1.0;2
145.189;39.75;1.97502e-154;1.0;2
146.477;40.0;1.20326e-153;1.0;2
147.764;40.25;7.28685e-153;1.0;2
149.052;40.5;4.40114e-152;1.0;2
150.3408;40.75;2.64797e-151;1.0;2
151.63;41.0;1.58626e-150;1.0;2
152.914;41.25;9.40135e-150;1.0;2
154.201;41.5;5.56689e-149;1.0;2
155.491;41.75;3.28984e-148;1.0;2
156.779;42.0;1.93259e-147;1.0;2
158.066;42.25;1.12798e-146;1.0;2
159.352;42.5;6.54897e-146;1.0;2
160.638;42.75;3.78101e-145;1.0;2
161.923;43.0;2.17351e-144;1.0;2
163.2086;43.25;1.24262e-143;1.0;2
164.4928;43.5;7.06203e-143;1.0;2
165.782;43.75;4.01958e-142;1.0;2
167.069;44.0;2.27448e-141;1.0;2
168.35;44.25;1.26841e-140;1.0;2
169.63;44.5;7.0404e-140;1.0;2
170.916;44.75;3.9167e-139;1.0;2
172.2;45.0;2.16524e-138;1.0;2
173.484;45.25;1.19176e-137;1.0;2
174.772;45.5;6.55807e-137;1.0;2
176.055;45.75;3.57349e-136;1.0;2
177.339;46.0;1.93879e-135;1.0;2
178.6242;46.25;1.04834e-134;1.0;2
179.907;46.5;5.63022e-134;1.0;2
181.188;46.75;3.001e-133;1.0;2
182.47;47.0;1.59406e-132;1.0;2
183.751;47.25;8.41913e-132;1.0;2
185.034;47.5;4.4399e-131;1.0;2
186.318;47.75;2.33156e-130;1.0;2
187.6;48.0;1.21633e-129;1.0;2
188.884;48.25;6.33166e-129;1.0;2
190.169;48.5;3.28757e-128;1.0;2
191.455;48.75;1.70032e-127;1.0;2
192.741;49.0;8.74689e-127;1.0;2
194.027;49.25;4.48548e-126;1.0;2
195.314;49.5;2.28849e-125;1.0;2
196.596;49.75;1.15683e-124;1.0;2
197.878;50.0;5.81818e-124;1.0;2
199.164;50.25;2.92604e-123;1.0;2
200.448;50.5;1.46085e-122;1.0;2
201.731;50.75;7.26082e-122;1.0;2
203.018;51.0;3.60457e-121;1.0;2
204.303;51.25;1.77938e-120;1.0;2
205.589;51.5;8.74522e-120;1.0;2
206.875;51.75;4.27977e-119;1.0;2
208.16;52.0;2.08083e-118;1.0;2
209.443;52.25;1.00583e-117;1.0;2
210.727;52.5;4.83856e-117;1.0;2
212.011;52.75;2.31894e-116;1.0;2
213.2936;53.0;1.10447e-115;1.0;2
214.5738;53.25;5.22029e-115;1.0;2
215.857;53.5;2.46484e-114;1.0;2
217.1376;53.75;1.15505e-113;1.0;2
218.417;54.0;5.37931e-113;1.0;2
219.696;54.25;2.49342e-112;1.0;2
220.974;54.5;1.14899e-111;1.0;2
222.254;54.75;5.27931e-111;1.0;2
223.532;55.0;2.41221e-110;1.0;2
224.81;55.25;1.09616e-109;1.0;2
226.091;55.5;4.97337e-109;1.0;2
227.368;55.75;2.23936e-108;1.0;2
228.648;56.0;1.00542e-107;1.0;2
229.928;56.25;4.49869e-107;1.0;2
231.206;56.5;1.99971e-106;1.0;2
232.486;56.75;8.85545e-106;1.0;2
233.765;57.0;3.90587e-105;1.0;2
235.045;57.25;1.71445e-104;1.0;2
236.323;57.5;7.48115e-104;1.0;2
237.601;57.75;3.247e-103;1.0;2
238.878;58.0;1.40212e-102;1.0;2
240.155;58.25;6.03005e-102;1.0;2
241.433;58.5;2.58347e-101;1.0;2
242.71;58.75;1.10006e-100;1.0;2
243.985;59.0;4.65452e-100;1.0;2
245.262;59.25;1.96364e-99;1.0;2
246.539;59.5;8.24555e-99;1.0;2
247.816;59.75;3.44967e-98;1.0;2
249.096;60.0;1.44113e-97;1.0;2
250.374;60.25;5.9799e-97;1.0;2
251.654;60.5;2.47516e-96;1.0;2
252.931;60.75;1.0162e-95;1.0;2
254.205;61.0;4.14239e-95;1.0;2
255.482;61.25;1.68505e-94;1.0;2
256.759;61.5;6.8298e-94;1.0;2
258.036;61.75;2.75218e-93;1.0;2
259.311;62.0;1.10237e-92;1.0;2
260.5913;62.25;4.42294e-92;1.0;2
261.867;62.5;1.75741e-91;1.0;2
263.142;62.75;6.94313e-91;1.0;2
264.4204;63.0;2.74089e-90;1.0;2
265.7;63.25;1.07814e-89;1.0;2
266.978;63.5;4.21647e-89;1.0;2
268.256;63.75;1.64196e-88;1.0;2
269.535;64.0;6.37074e-88;1.0;2
270.812;64.25;2.45386e-87;1.0;2
272.086;64.5;9.38349e-87;1.0;2
273.359;64.75;3.56857e-86;1.0;2
274.632;65.0;1.35022e-85;1.0;2
275.906;65.25;5.09474e-85;1.0;2
277.181;65.5;1.9153e-84;1.0;2
278.456;65.75;7.16318e-84;1.0;2
279.729;66.0;2.66369e-83;1.0;2
281.006;66.25;9.89654e-83;1.0;2
282.284;66.5;3.66539e-82;1.0;2
283.56;66.75;1.3475e-81;1.0;2
284.836;67.0;4.93601e-81;1.0;2
286.111;67.25;1.79768e-80;1.0;2
287.388;67.5;6.52648e-80;1.0;2
288.666;67.75;2.36189e-79;1.0;2
289.94;68.0;8.47856e-79;1.0;2
291.213;68.25;3.02508e-78;1.0;2
292.485;68.5;1.07374e-77;1.0;2
293.757;68.75;3.79342e-77;1.0;2
295.031;69.0;1.33707e-76;1.0;2
296.307;69.25;4.70168e-76;1.0;2
297.582;69.5;1.6431e-75;1.0;2
298.8559;69.75;5.71171e-75;1.0;2
300.129;70.0;1.97508e-74;1.0;2
301.402;70.25;6.79673e-74;1.0;2
302.675;70.5;2.32916e-73;1.0;2
303.947;70.75;7.93703e-73;1.0;2
305.218;71.0;2.68987e-72;1.0;2
306.486;71.25;9.05301e-72;1.0;2
307.755;71.5;3.03427e-71;1.0;2
309.028;71.75;1.01617e-70;1.0;2
310.299;72.0;3.38074e-70;1.0;2
311.568;72.25;1.11828e-69;1.0;2
312.838;72.5;3.68479e-69;1.0;2
314.107;72.75;1.2081e-68;1.0;2
315.373;73.0;3.93162e-68;1.0;2
316.642;73.25;1.27714e-67;1.0;2
317.912;73.5;4.13382e-67;1.0;2
319.1809;73.75;1.33073e-66;1.0;2
320.449;74.0;4.26159e-66;1.0;2
321.7193;74.25;1.3612e-65;1.0;2
322.988;74.5;4.32178e-65;1.0;2
324.258;74.75;1.36791e-64;1.0;2
325.526;75.0;4.30306e-64;1.0;2
326.7946;75.25;1.34766e-63;1.0;2
328.063;75.5;4.2021e-63;1.0;2
329.332;75.75;1.30481e-62;1.0;2
330.599;76.0;4.02805e-62;1.0;2
331.868;76.25;1.23913e-61;1.0;2
333.139;76.5;3.80614e-61;1.0;2
334.409;76.75;1.16172e-60;1.0;2
335.672;77.0;3.51057e-60;1.0;2
336.935;77.25;1.05574e-59;1.0;2
338.201;77.5;3.16669e-59;1.0;2
339.467;77.75;9.46646e-59;1.0;2
340.734;78.0;2.81961e-58;1.0;2
342.001;78.25;8.35728e-58;1.0;2
343.267;78.5;2.46406e-57;1.0;2
344.533;78.75;7.2319e-57;1.0;2
345.801;79.0;2.11656e-56;1.0;2
347.068;79.25;6.1636e-56;1.0;2
348.3319;79.5;1.78222e-55;1.0;2
349.596;79.75;5.13228e-55;1.0;2
350.862;80.0;1.47259e-54;1.0;2
352.1271;80.25;4.2055e-54;1.0;2
353.392;80.5;1.19508e-53;1.0;2
354.658;80.75;3.38504e-53;1.0;2
355.923;81.0;9.53876e-53;1.0;2
357.19;81.25;2.67871e-52;1.0;2
358.457;81.5;7.49263e-52;1.0;2
359.7225;81.75;2.08409e-51;1.0;2
360.985;82.0;5.75729e-51;1.0;2
362.2481;82.25;1.58342e-50;1.0;2
363.513;82.5;4.34399e-50;1.0;2
364.776;82.75;1.18427e-49;1.0;2
366.039;83.0;3.21436e-49;1.0;2
367.303;83.25;8.69089e-49;1.0;2
368.565;83.5;2.33569e-48;1.0;2
369.826;83.75;6.24599e-48;1.0;2
371.086;84.0;1.66215e-47;1.0;2
372.3491;84.25;4.41102e-47;1.0;2
373.6113;84.5;1.16499e-46;1.0;2
374.87;84.75;3.05592e-46;1.0;2
376.134;85.0;8.00982e-46;1.0;2
377.3972;85.25;2.0886e-45;1.0;2
378.66;85.5;5.42125e-45;1.0;2
379.921;85.75;1.39894e-44;1.0;2
381.179;86.0;3.58677e-44;1.0;2
382.438;86.25;9.16231e-44;1.0;2
383.7;86.5;2.3339e-43;1.0;2
384.959;86.75;5.90846e-43;1.0;2
386.2178;87.0;1.48947e-42;1.0;2
387.478;87.25;3.74197e-42;1.0;2
388.738;87.5;9.3523e-42;1.0;2
389.998;87.75;2.32792e-41;1.0;2
391.254;88.0;5.75326e-41;1.0;2
392.51;88.25;1.41505e-40;1.0;2
393.773;88.5;3.48287e-40;1.0;2
395.0354;88.75;8.53098e-40;1.0;2
396.297;89.0;2.07938e-39;1.0;2
397.556;89.25;5.0374e-39;1.0;2
398.817;89.5;1.21609e-38;1.0;2
400.079;89.75;2.92509e-38;1.0;2
401.34;90.0;7.00031e-38;1.0;2
402.599;90.25;1.6656e-37;1.0;2
403.858;90.5;3.94771e-37;1.0;2
405.119;90.75;9.32328e-37;1.0;2
406.379;91.0;2.19026e-36;1.0;2
407.638;91.25;5.12087e-36;1.0;2
408.901;91.5;1.19513e-35;1.0;2
410.16;91.75;2.76852e-35;1.0;2
411.418;92.0;6.38244e-35;1.0;2
412.676;92.25;1.46508e-34;1.0;2
413.935;92.5;3.35009e-34;1.0;2
415.192;92.75;7.61386e-34;1.0;2
416.4495;93.0;1.72439e-33;1.0;2
417.706;93.25;3.88505e-33;1.0;2
418.9638;93.5;8.72059e-33;1.0;2
420.221;93.75;1.94855e-32;1.0;2
421.478;94.0;4.33233e-32;1.0;2
422.7334;94.25;9.58388e-32;1.0;2
423.99;94.5;2.11197e-31;1.0;2
425.248;94.75;4.63855e-31;1.0;2
426.506;95.0;1.01435e-30;1.0;2
427.762;95.25;2.20558e-30;1.0;2
429.019;95.5;4.77603e-30;1.0;2
430.275;95.75;1.02905e-29;1.0;2
431.534;96.0;2.21296e-29;1.0;2
432.795;96.25;4.74142e-29;1.0;2
434.053;96.5;1.00955e-28;1.0;2
435.313;96.75;2.1417e-28;1.0;2
436.573;97.0;4.52723e-28;1.0;2
437.835;97.25;9.53514e-28;1.0;2
439.093;97.5;1.99406e-27;1.0;2
440.3477;97.75;4.14572e-27;1.0;2
441.604;98.0;8.58977e-27;1.0;2
442.859;98.25;1.7697e-26;1.0;2
444.117;98.5;3.63848e-26;1.0;2
445.377;98.75;7.45172e-26;1.0;2
446.638;99.0;1.52059e-25;1.0;2
447.8979;99.25;3.088e-25;1.0;2
449.159;99.5;6.24701e-25;1.0;2
450.419;99.75;1.25716e-24;1.0;2
451.676;100.0;2.51545e-24;1.0;2
452.933;100.25;5.0102e-24;1.0;2
454.189;100.5;9.92689e-24;1.0;2
455.4418;100.75;1.95523e-23;1.0;2
456.696;101.0;3.83778e-23;1.0;2
457.9502;101.25;7.49788e-23;1.0;2
459.202;101.5;1.45669e-22;1.0;2
460.455;101.75;2.82045e-22;1.0;2
461.713;102.0;5.44855e-22;1.0;2
462.968;102.25;1.04653e-21;1.0;2
464.222;102.5;2.00016e-21;1.0;2
465.4741;102.75;3.80294e-21;1.0;2
466.727;103.0;7.20165e-21;1.0;2
467.98;103.25;1.35766e-20;1.0;2
469.233;103.5;2.54815e-20;1.0;2
470.486;103.75;4.76364e-20;1.0;2
471.739;104.0;8.86326e-20;1.0;2
472.992;104.25;1.64204e-19;1.0;2
474.243;104.5;3.02645e-19;1.0;2
475.4947;104.75;5.55412e-19;1.0;2
476.747;105.0;1.01514e-18;1.0;2
477.9978;105.25;1.8463e-18;1.0;2
479.249;105.5;3.34344e-18;1.0;2
480.501;105.75;6.03214e-18;1.0;2
481.753;106.0;1.08322e-17;1.0;2
483.006;106.25;1.93732e-17;1.0;2
484.256;106.5;3.44711e-17;1.0;2
485.507;106.75;6.10637e-17;1.0;2
486.76;107.0;1.07832e-16;1.0;2
488.013;107.25;1.89531e-16;1.0;2
489.266;107.5;3.31693e-16;1.0;2
490.52;107.75;5.78251e-16;1.0;2
491.772;108.0;1.00285e-15;1.0;2
493.024;108.25;1.7313e-15;1.0;2
494.278;108.5;2.97847e-15;1.0;2
495.531;108.75;5.09985e-15;1.0;2
496.782;109.0;8.68715e-15;1.0;2
498.034;109.25;1.47442e-14;1.0;2
499.287;109.5;2.49148e-14;1.0;2
500.541;109.75;4.19353e-14;1.0;2
501.7957;110.0;7.02941e-14;1.0;2
503.048;110.25;1.17225e-13;1.0;2
504.301;110.5;1.94615e-13;1.0;2
505.554;110.75;3.21722e-13;1.0;2
506.804;111.0;5.29099e-13;1.0;2
508.055;111.25;8.66271e-13;1.0;2
509.307;111.5;1.41317e-12;1.0;2
510.562;111.75;2.29723e-12;1.0;2
511.798;112.0;3.69195e-12;1.0;2
513.034;112.25;5.90845e-12;1.0;2
514.314;112.5;9.57283e-12;1.0;2
515.603;112.75;1.5484e-11;1.0;2
516.891;113.0;2.49312e-11;1.0;2
518.177;113.25;3.9918e-11;1.0;2
519.459;113.5;6.35439e-11;1.0;2
520.74;113.75;1.00624e-10;1.0;2
522.021;114.0;1.58647e-10;1.0;2
523.318;114.25;2.50367e-10;1.0;2
524.658;114.5;3.9916e-10;1.0;2
526.025;114.75;6.39009e-10;1.0;2
527.4373;115.0;1.03342e-09;1.0;2
528.914;115.25;1.69844e-09;1.0;2
530.34;115.5;2.72812e-09;1.0;2
531.691;115.75;4.25209e-09;1.0;2
533;116.0;6.50345e-09;1.0;2
534.277;116.25;9.80028e-09;1.0;2
535.532;116.5;1.45991e-08;1.0;2
536.77;116.75;2.15399e-08;1.0;2
537.996;117.0;3.153e-08;1.0;2
539.218;117.25;4.58987e-08;1.0;2
540.437;117.5;6.64727e-08;1.0;2
541.654;117.75;9.58218e-08;1.0;2
542.871;118.0;1.37552e-07;1.0;2
544.086;118.25;1.96533e-07;1.0;2
545.2994;118.5;2.7954e-07;1.0;2
546.514;118.75;3.96094e-07;1.0;2
547.731;119.0;5.59263e-07;1.0;2
548.947;119.25;7.86342e-07;1.0;2
550.163;119.5;1.10083e-06;1.0;2
551.381;119.75;1.53565e-06;1.0;2
552.601;120.0;2.1346e-06;1.0;2
553.823;120.25;2.95648e-06;1.0;2
555.046;120.5;4.07892e-06;1.0;2
556.2706;120.75;5.60591e-06;1.0;2
557.497;121.0;7.67631e-06;1.0;2
558.723;121.25;1.04655e-05;1.0;2
559.947;121.5;1.42036e-05;1.0;2
561.172;121.75;1.91983e-05;1.0;2
562.398;122.0;2.58473e-05;1.0;2
563.624;122.25;3.46574e-05;1.0;2
564.8499;122.5;4.62717e-05;1.0;2
566.077;122.75;6.15396e-05;1.0;2
567.305;123.0;8.15041e-05;1.0;2
568.536;123.25;0.000107579;1.0;2
569.766;123.5;0.000141375;1.0;2
570.995;123.75;0.000184975;1.0;2
572.223;124.0;0.000240885;1.0;2
573.451;124.25;0.000312423;1.0;2
574.685;124.5;0.000404006;1.0;2
575.917;124.75;0.000520047;1.0;2
577.149;125.0;0.000666513;1.0;2
578.389;125.25;0.000852016;1.0;2
579.631;125.5;0.00108494;1.0;2
580.8682;125.75;0.00137429;1.0;2
582.1069;126.0;0.00173386;1.0;2
583.346;126.25;0.00217824;1.0;2
584.581;126.5;0.00272302;1.0;2
585.816;126.75;0.00338946;1.0;2
587.052;127.0;0.00420207;1.0;2
588.2876;127.25;0.00518643;1.0;2
589.524;127.5;0.00637485;1.0;2
590.7589;127.75;0.00780152;1.0;2
591.998;128.0;0.00951319;1.0;2
593.24;128.25;0.0115538;1.0;2
594.481;128.5;0.0139712;1.0;2
595.723;128.75;0.0168248;1.0;2
596.964;129.0;0.020173;1.0;2
598.207;129.25;0.0240882;1.0;2
599.451;129.5;0.0286422;1.0;2
600.693;129.75;0.0339051;1.0;2
601.936;130.0;0.0399626;1.0;2
603.178;130.25;0.0469006;1.0;2
604.421;130.5;0.0548121;1.0;2
605.666;130.75;0.0637932;1.0;2
606.909;131.0;0.0739049;1.0;2
608.15;131.25;0.0852429;1.0;2
609.393;131.5;0.0979168;1.0;2
610.636;131.75;0.111984;1.0;2
611.878;132.0;0.127512;1.0;2
613.123;132.25;0.144618;1.0;2
614.366;132.5;0.16327;1.0;2
615.6071;132.75;0.183511;1.0;2
616.8482;133.0;0.205374;1.0;2
618.089;133.25;0.22885;1.0;2
619.3303;133.5;0.253926;1.0;2
620.572;133.75;0.28056;1.0;2
621.815;134.0;0.30867;1.0;2
623.054;134.25;0.338035;1.0;2
624.294;134.5;0.368642;1.0;2
625.534;134.75;0.400317;1.0;2
626.776;135.0;0.432881;1.0;2
628.015;135.25;0.466021;1.0;2
629.254;135.5;0.499541;1.0;2
630.492;135.75;0.533168;1.0;2
631.726;136.0;0.566538;1.0;2
632.962;136.25;0.599455;1.0;2
634.196;136.5;0.631574;1.0;2
635.431;136.75;0.662576;1.0;2
636.6665;137.0;0.692195;1.0;2
637.901;137.25;0.720036;1.0;2
639.138;137.5;0.745853;1.0;2
640.374;137.75;0.769303;1.0;2
641.611;138.0;0.790116;1.0;2
642.848;138.25;0.808046;1.0;2
644.087;138.5;0.822872;1.0;2
645.323;138.75;0.834372;1.0;2
646.558;139.0;0.842432;1.0;2
647.793;139.25;0.846953;1.0;2
649.027;139.5;0.847884;1.0;2
650.261;139.75;0.845215;1.0;2
651.493;140.0;0.838997;1.0;2
652.725;140.25;0.829302;1.0;2
653.958;140.5;0.81625;1.0;2
655.188;140.75;0.800043;1.0;2
656.4166;141.0;0.780871;1.0;2
657.646;141.25;0.758944;1.0;2
658.874;141.5;0.734555;1.0;2
660.101;141.75;0.707983;1.0;2
661.33;142.0;0.679472;1.0;2
662.559;142.25;0.649368;1.0;2
663.787;142.5;0.618023;1.0;2
665.017;142.75;0.585648;1.0;2
666.247;143.0;0.552628;1.0;2
667.4744;143.25;0.519363;1.0;2
668.703;143.5;0.486014;1.0;2
669.931;143.75;0.452908;1.0;2
671.154;144.0;0.420412;1.0;2
672.376;144.25;0.388661;1.0;2
673.597;144.5;0.357816;1.0;2
674.8184;144.75;0.328065;1.0;2
676.039;145.0;0.29955;1.0;2
677.258;145.25;0.272405;1.0;2
678.477;145.5;0.246707;1.0;2
679.697;145.75;0.222482;1.0;2
680.915;146.0;0.199833;1.0;2
682.131;146.25;0.178791;1.0;2
683.346;146.5;0.159322;1.0;2
684.56;146.75;0.141407;1.0;2
685.775;147.0;0.124966;1.0;2
686.986;147.25;0.110044;1.0;2
688.196;147.5;0.0965064;1.0;2
689.407;147.75;0.0842904;1.0;2
690.618;148.0;0.0733148;1.0;2
691.831;148.25;0.0634936;1.0;2
693.043;148.5;0.0547693;1.0;2
694.256;148.75;0.0470414;1.0;2
695.473;149.0;0.0402188;1.0;2
696.694;149.25;0.0342272;1.0;2
697.916;149.5;0.029003;1.0;2
699.142;149.75;0.0244607;1.0;2
700.371;150.0;0.0205338;1.0;2
701.601;150.25;0.0171621;1.0;2
702.831;150.5;0.0142844;1.0;2
704.06;150.75;0.0118389;1.0;2
705.291;151.0;0.00976999;1.0;2
706.526;151.25;0.00802258;1.0;2
707.761;151.5;0.00655909;1.0;2
708.999;151.75;0.00533761;1.0;2
710.236;152.0;0.00432622;1.0;2
711.471;152.25;0.00349224;1.0;2
712.7091;152.5;0.00280584;1.0;2
713.945;152.75;0.0022455;1.0;2
715.181;153.0;0.00178955;1.0;2
716.416;153.25;0.00142012;1.0;2
717.649;153.5;0.00112262;1.0;2
718.885;153.75;0.000883232;1.0;2
720.121;154.0;0.00069201;1.0;2
721.3571;154.25;0.000539798;1.0;2
722.592;154.5;0.000419377;1.0;2
723.827;154.75;0.000324468;1.0;2
725.061;155.0;0.000249967;1.0;2
726.296;155.25;0.000191761;1.0;2
727.532;155.5;0.000146435;1.0;2
728.769;155.75;0.000111314;1.0;2
730.006;156.0;8.42681e-05;1.0;2
731.242;156.25;6.35343e-05;1.0;2
732.478;156.5;4.7695e-05;1.0;2
733.712;156.75;3.56685e-05;1.0;2
734.95;157.0;2.65396e-05;1.0;2
736.187;157.25;1.96684e-05;1.0;2
737.423;157.5;1.45143e-05;1.0;2
738.661;157.75;1.06605e-05;1.0;2
739.898;158.0;7.79917e-06;1.0;2
741.135;158.25;5.68136e-06;1.0;2
742.371;158.5;4.12238e-06;1.0;2
743.607;158.75;2.97834e-06;1.0;2
744.842;159.0;2.14316e-06;1.0;2
746.0747;159.25;1.53652e-06;1.0;2
747.308;159.5;1.09693e-06;1.0;2
748.542;159.75;7.79422e-07;1.0;2
749.774;160.0;5.5188e-07;1.0;2
751.007;160.25;3.89024e-07;1.0;2
752.241;160.5;2.72954e-07;1.0;2
753.474;160.75;1.90784e-07;1.0;2
754.709;161.0;1.32679e-07;1.0;2
755.944;161.25;9.1875e-08;1.0;2
757.179;161.5;6.33767e-08;1.0;2
758.412;161.75;4.35397e-08;1.0;2
759.647;162.0;2.97773e-08;1.0;2
760.88;162.25;2.02821e-08;1.0;2
762.116;162.5;1.37474e-08;1.0;2
763.351;162.75;9.28132e-09;1.0;2
764.587;163.0;6.23724e-09;1.0;2
765.823;163.25;4.17364e-09;1.0;2
767.059;163.5;2.78158e-09;1.0;2
768.295;163.75;1.84536e-09;1.0;2
769.532;164.0;1.21883e-09;1.0;2
770.77;164.25;8.01353e-10;1.0;2
772.008;164.5;5.24471e-10;1.0;2
773.247;164.75;3.41794e-10;1.0;2
774.484;165.0;2.21844e-10;1.0;2
775.722;165.25;1.43371e-10;1.0;2
776.962;165.5;9.21957e-11;1.0;2
778.1998;165.75;5.90847e-11;1.0;2
779.436;166.0;3.77212e-11;1.0;2
780.671;166.25;2.39885e-11;1.0;2
781.905;166.5;1.51992e-11;1.0;2
783.14;166.75;9.5855e-12;1.0;2
784.3755;167.0;6.01736e-12;1.0;2
785.609;167.25;3.76443e-12;1.0;2
786.842;167.5;2.34606e-12;1.0;2
788.077;167.75;1.45452e-12;1.0;2
789.312;168.0;8.97657e-13;1.0;2
790.548;168.25;5.51758e-13;1.0;2
791.782;168.5;3.37789e-13;1.0;2
793.017;168.75;2.05874e-13;1.0;2
794.255;169.0;1.24797e-13;1.0;2
795.493;169.25;7.53359e-14;1.0;2
796.729;169.5;4.53051e-14;1.0;2
797.966;169.75;2.71271e-14;1.0;2
799.2;170.0;1.61921e-14;1.0;2
800.435;170.25;9.61929e-15;1.0;2
801.672;170.5;5.68797e-15;1.0;2
802.905;170.75;3.35333e-15;1.0;2
804.141;171.0;1.96571e-15;1.0;2
805.379;171.25;1.14695e-15;1.0;2
806.613;171.5;6.67301e-16;1.0;2
807.846;171.75;3.86878e-16;1.0;2
809.08;172.0;2.23164e-16;1.0;2
810.312;172.25;1.28336e-16;1.0;2
811.544;172.5;7.34823e-17;1.0;2
812.779;172.75;4.18402e-17;1.0;2
814.012;173.0;2.3735e-17;1.0;2
815.245;173.25;1.34161e-17;1.0;2
816.475;173.5;7.55962e-18;1.0;2
817.709;173.75;4.23432e-18;1.0;2
818.944;174.0;2.36032e-18;1.0;2
820.177;174.25;1.31114e-18;1.0;2
821.41;174.5;7.25427e-19;1.0;2
822.643;174.75;3.99587e-19;1.0;2
823.877;175.0;2.19092e-19;1.0;2
825.111;175.25;1.19596e-19;1.0;2
826.346;175.5;6.49917e-20;1.0;2
827.58;175.75;3.51824e-20;1.0;2
828.815;176.0;1.89517e-20;1.0;2
830.051;176.25;1.01658e-20;1.0;2
831.283;176.5;5.43849e-21;1.0;2
832.518;176.75;2.8924e-21;1.0;2
833.752;177.0;1.53302e-21;1.0;2
834.987;177.25;8.08366e-22;1.0;2
836.222;177.5;4.24634e-22;1.0;2
837.455;177.75;2.22284e-22;1.0;2
838.691;178.0;1.15711e-22;1.0;2
839.927;178.25;5.99587e-23;1.0;2
841.162;178.5;3.09509e-23;1.0;2
842.396;178.75;1.59212e-23;1.0;2
843.63;179.0;8.15664e-24;1.0;2
844.866;179.25;4.1563e-24;1.0;2
846.101;179.5;2.10911e-24;1.0;2
847.336;179.75;1.06652e-24;1.0;2
848.569;180.0;5.37159e-25;1.0;2
849.801;180.25;2.69706e-25;1.0;2
851.034;180.5;1.34743e-25;1.0;2
852.2652;180.75;6.71132e-26;1.0;2
853.5;181.0;3.32207e-26;1.0;2
854.7352;181.25;1.63634e-26;1.0;2
855.969;181.5;8.03261e-27;1.0;2
857.203;181.75;3.92771e-27;1.0;2
858.438;182.0;1.91091e-27;1.0;2
859.672;182.25;9.26151e-28;1.0;2
860.904;182.5;4.47401e-28;1.0;2
862.139;182.75;2.14994e-28;1.0;2
863.372;183.0;1.02923e-28;1.0;2
864.607;183.25;4.90168e-29;1.0;2
865.842;183.5;2.32434e-29;1.0;2
867.076;183.75;1.09828e-29;1.0;2
868.312;184.0;5.16111e-30;1.0;2
869.548;184.25;2.41539e-30;1.0;2
870.783;184.5;1.12615e-30;1.0;2
872.0177;184.75;5.22826e-31;1.0;2
873.2523;185.0;2.41747e-31;1.0;2
874.487;185.25;1.11323e-31;1.0;2
875.721;185.5;5.10623e-32;1.0;2
876.955;185.75;2.33136e-32;1.0;2
878.1884;186.0;1.06059e-32;1.0;2
879.421;186.25;4.80589e-33;1.0;2
880.653;186.5;2.17032e-33;1.0;2
881.887;186.75;9.74758e-34;1.0;2
883.121;187.0;4.35608e-34;1.0;2
884.353;187.25;1.94179e-34;1.0;2
885.587;187.5;8.61203e-35;1.0;2
886.822;187.75;3.79986e-35;1.0;2
888.055;188.0;1.67094e-35;1.0;2
889.289;188.25;7.31604e-36;1.0;2
890.521;188.5;3.19169e-36;1.0;2
891.756;188.75;1.38458e-36;1.0;2
892.986;189.0;5.99862e-37;1.0;2
894.216;189.25;2.58865e-37;1.0;2
895.45;189.5;1.10922e-37;1.0;2
896.682;189.75;4.74039e-38;1.0;2
897.912;190.0;2.01928e-38;1.0;2
899.145;190.25;8.55256e-39;1.0;2
900.3779;190.5;3.60565e-39;1.0;2
901.61;190.75;1.51425e-39;1.0;2
902.845;191.0;6.32207e-40;1.0;2
904.0798;191.25;2.62876e-40;1.0;2
905.315;191.5;1.08764e-40;1.0;2
906.55;191.75;4.48243e-41;1.0;2