File: src/data/kinetics/q5/peak_5.txt
#EXPORTTYPE:DATA SINGLE
#FILE:00592013__Al2O3_900_5_N2_20_air_20.ngb-ds1
#FTYPE:ANSI
#IDENTITY:005920
#DECIMAL:POINT
#SEPARATOR:SEMICOLON
#MTYPE:DSC
#PROJECT:
#DATE/TIME:21.07.2025 08:33
#CORR. FILE:005919_bline_Al2O3_900_5_N2_20_air_20.ngb-bs1
#TEMPCAL:TCALZERO.TCX
#SENSITIVITY:SENSZERO.EXX
#LABORATORY: 11
#OPERATOR:
#REMARK:
#SAMPLE:1
#SAMPLE MASS /mg:9.99
#MATERIAL:
#REFERENCE:
#REFERENCE MASS /mg:0
#TYPE OF CRUCIBLE:DSC/TG pan Al2O3
#SAMPLE CRUCIBLE MASS /mg:0
#REFERENCE CRUCIBLE MASS /mg:0
#DSC RANGE /V:5000
#TG RANGE /mg:5000
#TAU-R:---
#CORR. CODE:020
#EXO:+1
#RANGE:35C/00:00/35C/5,0(K/min)/920C/
#SEGMENT:S1-2/2
#SEG. 1:35C/00:15/35C
#SEG. 2:35C/5,0(K/min)/920C

##Temp./C;Time/min;DSC/(uV/mg);Sensit./(uV/mW);Segment
34.17636;0.25;0.0;1.0;1
34.17971;0.5;0.0;1.0;1
34.17888;0.75;0.0;1.0;1
34.17688;1.0;0.0;1.0;1
34.17253;1.25;0.0;1.0;1
34.17059;1.5;0.0;1.0;1
34.16876;1.75;0.0;1.0;1
34.16682;2.0;0.0;1.0;1
34.16441;2.25;0.0;1.0;1
34.16576;2.5;0.0;1.0;1
34.17024;2.75;0.0;1.0;1
34.16623;3.0;0.0;1.0;1
34.16288;3.25;0.0;1.0;1
34.16018;3.5;0.0;1.0;1
34.158;3.75;0.0;1.0;1
34.16165;4.0;0.0;1.0;1
34.16312;4.25;0.0;1.0;1
34.16582;4.5;0.0;1.0;1
34.16759;4.75;0.0;1.0;1
34.16271;5.0;0.0;1.0;1
34.15965;5.25;0.0;1.0;1
34.15641;5.5;0.0;1.0;1
34.15535;5.75;0.0;1.0;1
34.15588;6.0;0.0;1.0;1
34.15641;6.25;0.0;1.0;1
34.15753;6.5;0.0;1.0;1
34.15565;6.75;0.0;1.0;1
34.15471;7.0;0.0;1.0;1
34.15547;7.25;0.0;1.0;1
34.15894;7.5;0.0;1.0;1
34.15988;7.75;0.0;1.0;1
34.157;8.0;0.0;1.0;1
34.15382;8.25;0.0;1.0;1
34.15247;8.5;0.0;1.0;1
34.15324;8.75;0.0;1.0;1
34.15406;9.0;0.0;1.0;1
34.15082;9.25;0.0;1.0;1
34.15171;9.5;0.0;1.0;1
34.15165;9.75;0.0;1.0;1
34.15165;10.0;0.0;1.0;1
34.15094;10.25;0.0;1.0;1
34.14553;10.5;0.0;1.0;1
34.14282;10.75;0.0;1.0;1
34.14235;11.0;0.0;1.0;1
34.13906;11.25;0.0;1.0;1
34.13618;11.5;0.0;1.0;1
34.13253;11.75;0.0;1.0;1
34.12859;12.0;0.0;1.0;1
34.12518;12.25;0.0;1.0;1
34.12371;12.5;0.0;1.0;1
34.123;12.75;0.0;1.0;1
34.12447;13.0;0.0;1.0;1
34.12429;13.25;0.0;1.0;1
34.12471;13.5;0.0;1.0;1
34.12024;13.75;0.0;1.0;1
34.115;14.0;0.0;1.0;1
34.10647;14.25;0.0;1.0;1
34.10235;14.5;0.0;1.0;1
34.10264;14.75;0.0;1.0;1
34.11549;15.0;0.0;1.0;2
34.10516;15.25;0.0;1.0;2
34.13672;15.5;0.0;1.0;2
34.23371;15.75;0.0;1.0;2
34.42622;16.0;0.0;1.0;2
34.72104;16.25;0.0;1.0;2
35.12375;16.5;0.0;1.0;2
35.61708;16.75;0.0;1.0;2
36.1925;17.0;0.0;1.0;2
36.83655;17.25;0.0;1.0;2
37.54164;17.5;0.0;1.0;2
38.29774;17.75;0.0;1.0;2
39.09878;18.0;0.0;1.0;2
39.94421;18.25;0.0;1.0;2
40.82469;18.5;0.0;1.0;2
41.7454;18.75;0.0;1.0;2
42.69183;19.0;0.0;1.0;2
43.66753;19.25;0.0;1.0;2
44.66731;19.5;0.0;1.0;2
45.6928;19.75;0.0;1.0;2
46.74168;20.0;0.0;1.0;2
47.8057;20.25;0.0;1.0;2
48.88834;20.5;0.0;1.0;2
49.98967;20.75;0.0;1.0;2
51.10446;21.0;0.0;1.0;2
52.23305;21.25;0.0;1.0;2
53.37523;21.5;0.0;1.0;2
54.5253;21.75;0.0;1.0;2
55.68474;22.0;0.0;1.0;2
56.85935;22.25;0.0;1.0;2
58.04364;22.5;0.0;1.0;2
59.23476;22.75;0.0;1.0;2
60.43665;23.0;0.0;1.0;2
61.64896;23.25;0.0;1.0;2
62.86358;23.5;0.0;1.0;2
64.0847;23.75;0.0;1.0;2
65.30787;24.0;0.0;1.0;2
66.53528;24.25;0.0;1.0;2
67.76738;24.5;0.0;1.0;2
69.00398;24.75;0.0;1.0;2
70.24448;25.0;0.0;1.0;2
71.48621;25.25;0.0;1.0;2
72.72937;25.5;0.0;1.0;2
73.97395;25.75;0.0;1.0;2
75.22398;26.0;0.0;1.0;2
76.46965;26.25;0.0;1.0;2
77.71669;26.5;0.0;1.0;2
78.96561;26.75;0.0;1.0;2
80.21691;27.0;0.0;1.0;2
81.47146;27.25;0.0;1.0;2
82.72618;27.5;0.0;1.0;2
83.9838;27.75;0.0;1.0;2
85.24469;28.0;0.0;1.0;2
86.50762;28.25;0.0;1.0;2
87.77336;28.5;0.0;1.0;2
89.03755;28.75;0.0;1.0;2
90.30329;29.0;0.0;1.0;2
91.5698;29.25;0.0;1.0;2
92.84121;29.5;0.0;1.0;2
94.11325;29.75;0.0;1.0;2
95.38379;30.0;0.0;1.0;2
96.65528;30.25;0.0;1.0;2
97.92917;30.5;0.0;1.0;2
99.20502;30.75;0.0;1.0;2
100.482;31.0;0.0;1.0;2
101.761;31.25;0.0;1.0;2
103.0401;31.5;0.0;1.0;2
104.318;31.75;0.0;1.0;2
105.595;32.0;0.0;1.0;2
106.873;32.25;0.0;1.0;2
108.15;32.5;0.0;1.0;2
109.424;32.75;0.0;1.0;2
110.698;33.0;0.0;1.0;2
111.973;33.25;0.0;1.0;2
113.248;33.5;0.0;1.0;2
114.5243;33.75;0.0;1.0;2
115.8;34.0;0.0;1.0;2
117.071;34.25;0.0;1.0;2
118.344;34.5;0.0;1.0;2
119.615;34.75;0.0;1.0;2
120.886;35.0;0.0;1.0;2
122.16;35.25;0.0;1.0;2
123.434;35.5;0.0;1.0;2
124.708;35.75;0.0;1.0;2
125.984;36.0;0.0;1.0;2
127.259;36.25;0.0;1.0;2
128.536;36.5;0.0;1.0;2
129.815;36.75;0.0;1.0;2
131.096;37.0;0.0;1.0;2
132.375;37.25;0.0;1.0;2
133.6561;37.5;0.0;1.0;2
134.935;37.75;0.0;1.0;2
136.213;38.0;0.0;1.0;2
137.494;38.25;0.0;1.0;2
138.773;38.5;0.0;1.0;2
140.055;38.75;0.0;1.0;2
141.336;39.0;0.0;1.0;2
142.619;39.25;0.0;1.0;2
143.902;39.5;0.0;1.0;2
145.189;39.75;0.0;1.0;2
146.477;40.0;0.0;1.0;2
147.764;40.25;0.0;1.0;2
149.052;40.5;0.0;1.0;2
150.3408;40.75;0.0;1.0;2
151.63;41.0;0.0;1.0;2
152.914;41.25;0.0;1.0;2
154.201;41.5;0.0;1.0;2
155.491;41.75;0.0;1.0;2
156.779;42.0;0.0;1.0;2
158.066;42.25;0.0;1.0;2
159.352;42.5;0.0;1.0;2
160.638;42.75;0.0;1.0;2
161.923;43.0;0.0;1.0;2
163.2086;43.25;0.0;1.0;2
164.4928;43.5;0.0;1.0;2
165.782;43.75;0.0;1.0;2
167.069;44.0;0.0;1.0;2
168.35;44.25;0.0;1.0;2
169.63;44.5;0.0;1.0;2
170.916;44.75;0.0;1.0;2
172.2;45.0;0.0;1.0;2
173.484;45.25;0.0;1.0;2
174.772;45.5;0.0;1.0;2
176.055;45.75;0.0;1.0;2
177.339;46.0;0.0;1.0;2
178.6242;46.25;0.0;1.0;2
179.907;46.5;0.0;1.0;2
181.188;46.75;0.0;1.0;2
182.47;47.0;0.0;1.0;2
183.751;47.25;0.0;1.0;2
185.034;47.5;0.0;1.0;2
186.318;47.75;0.0;1.0;2
187.6;48.0;0.0;1.0;2
188.884;48.25;0.0;1.0;2
190.169;48.5;0.0;1.0;2
191.455;48.75;0.0;1.0;2
192.741;49.0;0.0;1.0;2
194.027;49.25;0.0;1.0;2
195.314;49.5;0.0;1.0;2
196.596;49.75;0.0;1.0;2
197.878;50.0;0.0;1.0;2
199.164;50.25;0.0;1.0;2
200.448;50.5;0.0;1.0;2
201.731;50.75;0.0;1.0;2
203.018;51.0;0.0;1.0;2
204.303;51.25;0.0;1.0;2
205.589;51.5;0.0;1.0;2
206.875;51.75;0.0;1.0;2
208.16;52.0;0.0;1.0;2
209.443;52.25;0.0;1.0;2
210.727;52.5;0.0;1.0;2
212.011;52.75;0.0;1.0;2
213.2936;53.0;0.0;1.0;2
214.5738;53.25;0.0;1.0;2
215.857;53.5;0.0;1.0;2
217.1376;53.75;0.0;1.0;2
218.417;54.0;0.0;1.0;2
219.696;54.25;0.0;1.0;2
220.974;54.5;0.0;1.0;2
222.254;54.75;0.0;1.0;2
223.532;55.0;0.0;1.0;2
224.81;55.25;0.0;1.0;2
226.091;55.5;0.0;1.0;2
227.368;55.75;0.0;1.0;2
228.648;56.0;0.0;1.0;2
229.928;56.25;0.0;1.0;2
231.206;56.5;0.0;1.0;2
232.486;56.75;0.0;1.0;2
233.765;57.0;0.0;1.0;2
235.045;57.25;0.0;1.0;2
236.323;57.5;0.0;1.0;2
237.601;57.75;0.0;1.0;2
238.878;58.0;0.0;1.0;2
240.155;58.25;0.0;1.0;2
241.433;58.5;0.0;1.0;2
242.71;58.75;0.0;1.0;2
243.985;59.0;0.0;1.0;2
245.262;59.25;0.0;1.0;2
246.539;59.5;0.0;1.0;2
247.816;59.75;0.0;1.0;2
249.096;60.0;0.0;1.0;2
250.374;60.25;0.0;1.0;2
251.654;60.5;0.0;1.0;2
252.931;60.75;5.0e-324;1.0;2
254.205;61.0;1.53e-322;1.0;2
255.482;61.25;1.361e-320;1.0;2
256.759;61.5;1.20561e-318;1.0;2
258.036;61.75;1.04927e-316;1.0;2
259.311;62.0;8.96534e-315;1.0;2
260.5913;62.25;7.70862e-313;1.0;2
261.867;62.5;6.43057e-311;1.0;2
263.142;62.75;5.27172e-309;1.0;2
264.4204;63.0;4.31462e-307;1.0;2
265.7;63.25;3.49418e-305;1.0;2
266.978;63.5;2.78027e-303;1.0;2
268.256;63.75;2.18402e-301;1.0;2
269.535;64.0;1.69721e-299;1.0;2
270.812;64.25;1.28955e-297;1.0;2
272.086;64.5;9.58173e-296;1.0;2
273.359;64.75;7.00141e-294;1.0;2
274.632;65.0;5.03733e-292;1.0;2
275.906;65.25;3.59566e-290;1.0;2
277.181;65.5;2.53868e-288;1.0;2
278.456;65.75;1.76452e-286;1.0;2
279.729;66.0;1.20515e-284;1.0;2
281.006;66.25;8.21574e-283;1.0;2
282.284;66.5;5.54982e-281;1.0;2
283.56;66.75;3.66383e-279;1.0;2
284.836;67.0;2.39321e-277;1.0;2
286.111;67.25;1.53588e-275;1.0;2
287.388;67.5;9.76649e-274;1.0;2
288.666;67.75;6.15282e-272;1.0;2
289.94;68.0;3.78004e-270;1.0;2
291.213;68.25;2.27931e-268;1.0;2
292.485;68.5;1.35291e-266;1.0;2
293.757;68.75;7.91799e-265;1.0;2
295.031;69.0;4.60393e-263;1.0;2
296.307;69.25;2.6593e-261;1.0;2
297.582;69.5;1.50716e-259;1.0;2
298.8559;69.75;8.40486e-258;1.0;2
300.129;70.0;4.61276e-256;1.0;2
301.402;70.25;2.49478e-254;1.0;2
302.675;70.5;1.33251e-252;1.0;2
303.947;70.75;6.99615e-251;1.0;2
305.218;71.0;3.61222e-249;1.0;2
306.486;71.25;1.82555e-247;1.0;2
307.755;71.5;9.11227e-246;1.0;2
309.028;71.75;4.54118e-244;1.0;2
310.299;72.0;2.21761e-242;1.0;2
311.568;72.25;1.06397e-240;1.0;2
312.838;72.5;5.04657e-239;1.0;2
314.107;72.75;2.35762e-237;1.0;2
315.373;73.0;1.07639e-235;1.0;2
316.642;73.25;4.88997e-234;1.0;2
317.912;73.5;2.19822e-232;1.0;2
319.1809;73.75;9.71813e-231;1.0;2
320.449;74.0;4.22904e-229;1.0;2
321.7193;74.25;1.82677e-227;1.0;2
322.988;74.5;7.7467e-226;1.0;2
324.258;74.75;3.25572e-224;1.0;2
325.526;75.0;1.34262e-222;1.0;2
326.7946;75.25;5.46383e-221;1.0;2
328.063;75.5;2.19426e-219;1.0;2
329.332;75.75;8.70316e-218;1.0;2
330.599;76.0;3.39081e-216;1.0;2
331.868;76.25;1.30751e-214;1.0;2
333.139;76.5;5.02257e-213;1.0;2
334.409;76.75;1.89209e-211;1.0;2
335.672;77.0;6.90724e-210;1.0;2
336.935;77.25;2.48502e-208;1.0;2
338.201;77.5;8.8743e-207;1.0;2
339.467;77.75;3.138e-205;1.0;2
340.734;78.0;1.09775e-203;1.0;2
342.001;78.25;3.78368e-202;1.0;2
343.267;78.5;1.28337e-200;1.0;2
344.533;78.75;4.29338e-199;1.0;2
345.801;79.0;1.42479e-197;1.0;2
347.068;79.25;4.65698e-196;1.0;2
348.3319;79.5;1.48904e-194;1.0;2
349.596;79.75;4.70328e-193;1.0;2
350.862;80.0;1.46976e-191;1.0;2
352.1271;80.25;4.52827e-190;1.0;2
353.392;80.5;1.37429e-188;1.0;2
354.658;80.75;4.13151e-187;1.0;2
355.923;81.0;1.22272e-185;1.0;2
357.19;81.25;3.58234e-184;1.0;2
358.457;81.5;1.03722e-182;1.0;2
359.7225;81.75;2.95221e-181;1.0;2
360.985;82.0;8.22582e-180;1.0;2
362.2481;82.25;2.26161e-178;1.0;2
363.513;82.5;6.17489e-177;1.0;2
364.776;82.75;1.65351e-175;1.0;2
366.039;83.0;4.36932e-174;1.0;2
367.303;83.25;1.14144e-172;1.0;2
368.565;83.5;2.92704e-171;1.0;2
369.826;83.75;7.39304e-170;1.0;2
371.086;84.0;1.83992e-168;1.0;2
372.3491;84.25;4.54316e-167;1.0;2
373.6113;84.5;1.1056e-165;1.0;2
374.87;84.75;2.63412e-164;1.0;2
376.134;85.0;6.26756e-163;1.0;2
377.3972;85.25;1.46794e-161;1.0;2
378.66;85.5;3.39091e-160;1.0;2
379.921;85.75;7.69298e-159;1.0;2
381.179;86.0;1.71085e-157;1.0;2
382.438;86.25;3.76356e-156;1.0;2
383.7;86.5;8.213e-155;1.0;2
384.959;86.75;1.75835e-153;1.0;2
386.2178;87.0;3.71715e-152;1.0;2
387.478;87.25;7.77975e-151;1.0;2
388.738;87.5;1.60271e-149;1.0;2
389.998;87.75;3.26186e-148;1.0;2
391.254;88.0;6.49212e-147;1.0;2
392.51;88.25;1.27341e-145;1.0;2
393.773;88.5;2.50697e-144;1.0;2
395.0354;88.75;4.86345e-143;1.0;2
396.297;89.0;9.29567e-142;1.0;2
397.556;89.25;1.74334e-140;1.0;2
398.817;89.5;3.23634e-139;1.0;2
400.079;89.75;5.94375e-138;1.0;2
401.34;90.0;1.07492e-136;1.0;2
402.599;90.25;1.90947e-135;1.0;2
403.858;90.5;3.35328e-134;1.0;2
405.119;90.75;5.82742e-133;1.0;2
406.379;91.0;9.96447e-132;1.0;2
407.638;91.25;1.67931e-130;1.0;2
408.901;91.5;2.81731e-129;1.0;2
410.16;91.75;4.61712e-128;1.0;2
411.418;92.0;7.45685e-127;1.0;2
412.676;92.25;1.18891e-125;1.0;2
413.935;92.5;1.87396e-124;1.0;2
415.192;92.75;2.89849e-123;1.0;2
416.4495;93.0;4.43754e-122;1.0;2
417.706;93.25;6.68612e-121;1.0;2
418.9638;93.5;9.96445e-120;1.0;2
420.221;93.75;1.46468e-118;1.0;2
421.478;94.0;2.12062e-117;1.0;2
422.7334;94.25;3.02343e-116;1.0;2
423.99;94.5;4.26169e-115;1.0;2
425.248;94.75;5.94909e-114;1.0;2
426.506;95.0;8.19684e-113;1.0;2
427.762;95.25;1.10973e-111;1.0;2
429.019;95.5;1.48404e-110;1.0;2
430.275;95.75;1.9545e-109;1.0;2
431.534;96.0;2.56155e-108;1.0;2
432.795;96.25;3.32091e-107;1.0;2
434.053;96.5;4.22248e-106;1.0;2
435.313;96.75;5.31137e-105;1.0;2
436.573;97.0;6.61139e-104;1.0;2
437.835;97.25;8.14247e-103;1.0;2
439.093;97.5;9.80664e-102;1.0;2
440.3477;97.75;1.15979e-100;1.0;2
441.604;98.0;1.35814e-99;1.0;2
442.859;98.25;1.56274e-98;1.0;2
444.117;98.5;1.78859e-97;1.0;2
445.377;98.75;2.02374e-96;1.0;2
446.638;99.0;2.26552e-95;1.0;2
447.8979;99.25;2.49941e-94;1.0;2
449.159;99.5;2.72628e-93;1.0;2
450.419;99.75;2.92635e-92;1.0;2
451.676;100.0;3.08566e-91;1.0;2
452.933;100.25;3.20901e-90;1.0;2
454.189;100.5;3.28388e-89;1.0;2
455.4418;100.75;3.29911e-88;1.0;2
456.696;101.0;3.28126e-87;1.0;2
457.9502;101.25;3.21775e-86;1.0;2
459.202;101.5;3.10129e-85;1.0;2
460.455;101.75;2.95974e-84;1.0;2
461.713;102.0;2.80779e-83;1.0;2
462.968;102.25;2.6166e-82;1.0;2
464.222;102.5;2.40173e-81;1.0;2
465.4741;102.75;2.1695e-80;1.0;2
466.727;103.0;1.93652e-79;1.0;2
467.98;103.25;1.70524e-78;1.0;2
469.233;103.5;1.48165e-77;1.0;2
470.486;103.75;1.27235e-76;1.0;2
471.739;104.0;1.07697e-75;1.0;2
472.992;104.25;8.99937e-75;1.0;2
474.243;104.5;7.40153e-74;1.0;2
475.4947;104.75;6.00937e-73;1.0;2
476.747;105.0;4.8202e-72;1.0;2
477.9978;105.25;3.80862e-71;1.0;2
479.249;105.5;2.97034e-70;1.0;2
480.501;105.75;2.2915e-69;1.0;2
481.753;106.0;1.74284e-68;1.0;2
483.006;106.25;1.30967e-67;1.0;2
484.256;106.5;9.68711e-67;1.0;2
485.507;106.75;7.07001e-66;1.0;2
486.76;107.0;5.11447e-65;1.0;2
488.013;107.25;3.64747e-64;1.0;2
489.266;107.5;2.5678e-63;1.0;2
490.52;107.75;1.78727e-62;1.0;2
491.772;108.0;1.2242e-61;1.0;2
493.024;108.25;8.2697e-61;1.0;2
494.278;108.5;5.53058e-60;1.0;2
495.531;108.75;3.64573e-59;1.0;2
496.782;109.0;2.36522e-58;1.0;2
498.034;109.25;1.51836e-57;1.0;2
499.287;109.5;9.61922e-57;1.0;2
500.541;109.75;6.02348e-56;1.0;2
501.7957;110.0;3.72606e-55;1.0;2
503.048;110.25;2.2685e-54;1.0;2
504.301;110.5;1.36258e-53;1.0;2
505.554;110.75;8.08042e-53;1.0;2
506.804;111.0;4.7158e-52;1.0;2
508.055;111.25;2.71529e-51;1.0;2
509.307;111.5;1.54705e-50;1.0;2
510.562;111.75;8.72577e-50;1.0;2
511.798;112.0;4.73658e-49;1.0;2
513.034;112.25;2.53878e-48;1.0;2
514.314;112.5;1.42553e-47;1.0;2
515.603;112.75;7.97763e-47;1.0;2
516.891;113.0;4.40379e-46;1.0;2
518.177;113.25;2.38895e-45;1.0;2
519.459;113.5;1.2726e-44;1.0;2
520.74;113.75;6.67044e-44;1.0;2
522.021;114.0;3.45119e-43;1.0;2
523.318;114.25;1.79676e-42;1.0;2
524.658;114.5;9.73452e-42;1.0;2
526.025;114.75;5.37031e-41;1.0;2
527.4373;115.0;3.08437e-40;1.0;2
528.914;115.25;1.88546e-39;1.0;2
530.34;115.5;1.06406e-38;1.0;2
531.691;115.75;5.39804e-38;1.0;2
533;116.0;2.56379e-37;1.0;2
534.277;116.25;1.15665e-36;1.0;2
535.532;116.5;5.01657e-36;1.0;2
536.77;116.75;2.10631e-35;1.0;2
537.996;117.0;8.61381e-35;1.0;2
539.218;117.25;3.46125e-34;1.0;2
540.437;117.5;1.36851e-33;1.0;2
541.654;117.75;5.33364e-33;1.0;2
542.871;118.0;2.05263e-32;1.0;2
544.086;118.25;7.78565e-32;1.0;2
545.2994;118.5;2.91248e-31;1.0;2
546.514;118.75;1.07733e-30;1.0;2
547.731;119.0;3.94457e-30;1.0;2
548.947;119.25;1.42609e-29;1.0;2
550.163;119.5;5.08796e-29;1.0;2
551.381;119.75;1.79688e-28;1.0;2
552.601;120.0;6.28102e-28;1.0;2
553.823;120.25;2.17281e-27;1.0;2
555.046;120.5;7.43081e-27;1.0;2
556.2706;120.75;2.51273e-26;1.0;2
557.497;121.0;8.40702e-26;1.0;2
558.723;121.25;2.77564e-25;1.0;2
559.947;121.5;9.03706e-25;1.0;2
561.172;121.75;2.90662e-24;1.0;2
562.398;122.0;9.24061e-24;1.0;2
563.624;122.25;2.90214e-23;1.0;2
564.8499;122.5;8.99715e-23;1.0;2
566.077;122.75;2.7578e-22;1.0;2
567.305;123.0;8.3478e-22;1.0;2
568.536;123.25;2.50301e-21;1.0;2
569.766;123.5;7.40592e-21;1.0;2
570.995;123.75;2.16212e-20;1.0;2
572.223;124.0;6.22052e-20;1.0;2
573.451;124.25;1.7682e-19;1.0;2
574.685;124.5;4.98782e-19;1.0;2
575.917;124.75;1.38724e-18;1.0;2
577.149;125.0;3.80765e-18;1.0;2
578.389;125.25;1.03884e-17;1.0;2
579.631;125.5;2.80275e-17;1.0;2
580.8682;125.75;7.43464e-17;1.0;2
582.1069;126.0;1.94922e-16;1.0;2
583.346;126.25;5.04578e-16;1.0;2
584.581;126.5;1.28586e-15;1.0;2
585.816;126.75;3.23461e-15;1.0;2
587.052;127.0;8.04119e-15;1.0;2
588.2876;127.25;1.97208e-14;1.0;2
589.524;127.5;4.77706e-14;1.0;2
590.7589;127.75;1.14195e-13;1.0;2
591.998;128.0;2.70284e-13;1.0;2
593.24;128.25;6.3226e-13;1.0;2
594.481;128.5;1.45961e-12;1.0;2
595.723;128.75;3.32888e-12;1.0;2
596.964;129.0;7.49239e-12;1.0;2
598.207;129.25;1.66606e-11;1.0;2
599.451;129.5;3.65849e-11;1.0;2
600.693;129.75;7.92431e-11;1.0;2
601.936;130.0;1.69432e-10;1.0;2
603.178;130.25;3.57629e-10;1.0;2
604.421;130.5;7.45499e-10;1.0;2
605.666;130.75;1.53524e-09;1.0;2
606.909;131.0;3.11648e-09;1.0;2
608.15;131.25;6.24186e-09;1.0;2
609.393;131.5;1.23523e-08;1.0;2
610.636;131.75;2.41218e-08;1.0;2
611.878;132.0;4.64804e-08;1.0;2
613.123;132.25;8.85663e-08;1.0;2
614.366;132.5;1.66359e-07;1.0;2
615.6071;132.75;3.08237e-07;1.0;2
616.8482;133.0;5.63729e-07;1.0;2
618.089;133.25;1.01762e-06;1.0;2
619.3303;133.5;1.81372e-06;1.0;2
620.572;133.75;3.19239e-06;1.0;2
621.815;134.0;5.54807e-06;1.0;2
623.054;134.25;9.50083e-06;1.0;2
624.294;134.5;1.60695e-05;1.0;2
625.534;134.75;2.68386e-05;1.0;2
626.776;135.0;4.42689e-05;1.0;2
628.015;135.25;7.20141e-05;1.0;2
629.254;135.5;0.000115629;1.0;2
630.492;135.75;0.000183241;1.0;2
631.726;136.0;0.000286327;1.0;2
632.962;136.25;0.000441795;1.0;2
634.196;136.5;0.000672865;1.0;2
635.431;136.75;0.00101158;1.0;2
636.6665;137.0;0.00150234;1.0;2
637.901;137.25;0.00220196;1.0;2
639.138;137.5;0.00318799;1.0;2
640.374;137.75;0.00455649;1.0;2
641.611;138.0;0.00642967;1.0;2
642.848;138.25;0.00895905;1.0;2
644.087;138.5;0.0123271;1.0;2
645.323;138.75;0.0167347;1.0;2
646.558;139.0;0.0224255;1.0;2
647.793;139.25;0.0296641;1.0;2
649.027;139.5;0.0387417;1.0;2
650.261;139.75;0.0499442;1.0;2
651.493;140.0;0.0635425;1.0;2
652.725;140.25;0.0798247;1.0;2
653.958;140.5;0.0990149;1.0;2
655.188;140.75;0.121212;1.0;2
656.4166;141.0;0.146492;1.0;2
657.646;141.25;0.174824;1.0;2
658.874;141.5;0.20597;1.0;2
660.101;141.75;0.239589;1.0;2
661.33;142.0;0.275238;1.0;2
662.559;142.25;0.312209;1.0;2
663.787;142.5;0.349641;1.0;2
665.017;142.75;0.386723;1.0;2
666.247;143.0;0.422336;1.0;2
667.4744;143.25;0.455318;1.0;2
668.703;143.5;0.484743;1.0;2
669.931;143.75;0.509562;1.0;2
671.154;144.0;0.528846;1.0;2
672.376;144.25;0.541996;1.0;2
673.597;144.5;0.548555;1.0;2
674.8184;144.75;0.548283;1.0;2
676.039;145.0;0.541197;1.0;2
677.258;145.25;0.52758;1.0;2
678.477;145.5;0.507936;1.0;2
679.697;145.75;0.482931;1.0;2
680.915;146.0;0.453495;1.0;2
682.131;146.25;0.420652;1.0;2
683.346;146.5;0.385403;1.0;2
684.56;146.75;0.348796;1.0;2
685.775;147.0;0.311727;1.0;2
686.986;147.25;0.27532;1.0;2
688.196;147.5;0.240184;1.0;2
689.407;147.75;0.206975;1.0;2
690.618;148.0;0.176161;1.0;2
691.831;148.25;0.148059;1.0;2
693.043;148.5;0.12293;1.0;2
694.256;148.75;0.10079;1.0;2
695.473;149.0;0.0815672;1.0;2
696.694;149.25;0.0651502;1.0;2
697.916;149.5;0.0513791;1.0;2
699.142;149.75;0.0399814;1.0;2
700.371;150.0;0.0307002;1.0;2
701.601;150.25;0.0232706;1.0;2
702.831;150.5;0.0174177;1.0;2
704.06;150.75;0.0128722;1.0;2
705.291;151.0;0.00939152;1.0;2
706.526;151.25;0.00675691;1.0;2
707.761;151.5;0.00479873;1.0;2
708.999;151.75;0.00336225;1.0;2
710.236;152.0;0.00232674;1.0;2
711.471;152.25;0.00159019;1.0;2
712.7091;152.5;0.00107212;1.0;2
713.945;152.75;0.000714041;1.0;2
715.181;153.0;0.000469556;1.0;2
716.416;153.25;0.000304856;1.0;2
717.649;153.5;0.000195553;1.0;2
718.885;153.75;0.000123726;1.0;2
720.121;154.0;7.72996e-05;1.0;2
721.3571;154.25;4.76642e-05;1.0;2
722.592;154.5;2.90299e-05;1.0;2
723.827;154.75;1.74591e-05;1.0;2
725.061;155.0;1.03662e-05;1.0;2
726.296;155.25;6.07696e-06;1.0;2
727.532;155.5;3.5148e-06;1.0;2
728.769;155.75;2.00574e-06;1.0;2
730.006;156.0;1.13033e-06;1.0;2
731.242;156.25;6.29118e-07;1.0;2
732.478;156.5;3.45642e-07;1.0;2
733.712;156.75;1.8766e-07;1.0;2
734.95;157.0;1.00416e-07;1.0;2
736.187;157.25;5.3077e-08;1.0;2
737.423;157.5;2.76979e-08;1.0;2
738.661;157.75;1.4256e-08;1.0;2
739.898;158.0;7.24897e-09;1.0;2
741.135;158.25;3.63872e-09;1.0;2
742.371;158.5;1.80452e-09;1.0;2
743.607;158.75;8.83409e-10;1.0;2
744.842;159.0;4.27194e-10;1.0;2
746.0747;159.25;2.04214e-10;1.0;2
747.308;159.5;9.63847e-11;1.0;2
748.542;159.75;4.48662e-11;1.0;2
749.774;160.0;2.06542e-11;1.0;2
751.007;160.25;9.38284e-12;1.0;2
752.241;160.5;4.20455e-12;1.0;2
753.474;160.75;1.86196e-12;1.0;2
754.709;161.0;8.12599e-13;1.0;2
755.944;161.25;3.50093e-13;1.0;2
757.179;161.5;1.49058e-13;1.0;2
758.412;161.75;6.26802e-14;1.0;2
759.647;162.0;2.60075e-14;1.0;2
760.88;162.25;1.06582e-14;1.0;2
762.116;162.5;4.30601e-15;1.0;2
763.351;162.75;1.71873e-15;1.0;2
764.587;163.0;6.76715e-16;1.0;2
765.823;163.25;2.63035e-16;1.0;2
767.059;163.5;1.00994e-16;1.0;2
768.295;163.75;3.8255e-17;1.0;2
769.532;164.0;1.42999e-17;1.0;2
770.77;164.25;5.2734e-18;1.0;2
772.008;164.5;1.9185e-18;1.0;2
773.247;164.75;6.89045e-19;1.0;2
774.484;165.0;2.44444e-19;1.0;2
775.722;165.25;8.56037e-20;1.0;2
776.962;165.5;2.95444e-20;1.0;2
778.1998;165.75;1.00871e-20;1.0;2
779.436;166.0;3.40381e-21;1.0;2
780.671;166.25;1.13495e-21;1.0;2
781.905;166.5;3.74137e-22;1.0;2
783.14;166.75;1.21645e-22;1.0;2
784.3755;167.0;3.90139e-23;1.0;2
785.609;167.25;1.23778e-23;1.0;2
786.842;167.5;3.88133e-24;1.0;2
788.077;167.75;1.19882e-24;1.0;2
789.312;168.0;3.65272e-25;1.0;2
790.548;168.25;1.09939e-25;1.0;2
791.782;168.5;3.26881e-26;1.0;2
793.017;168.75;9.59038e-27;1.0;2
794.255;169.0;2.76991e-27;1.0;2
795.493;169.25;7.90024e-28;1.0;2
796.729;169.5;2.22707e-28;1.0;2
797.966;169.75;6.19676e-29;1.0;2
799.2;170.0;1.70708e-29;1.0;2
800.435;170.25;4.63726e-30;1.0;2
801.672;170.5;1.24239e-30;1.0;2
802.905;170.75;3.29672e-31;1.0;2
804.141;171.0;8.60532e-32;1.0;2
805.379;171.25;2.21542e-32;1.0;2
806.613;171.5;5.6507e-33;1.0;2
807.846;171.75;1.42562e-33;1.0;2
809.08;172.0;3.54363e-34;1.0;2
810.312;172.25;8.72285e-35;1.0;2
811.544;172.5;2.11936e-35;1.0;2
812.779;172.75;5.06676e-36;1.0;2
814.012;173.0;1.19754e-36;1.0;2
815.245;173.25;2.79915e-37;1.0;2
816.475;173.5;6.47803e-38;1.0;2
817.709;173.75;1.47371e-38;1.0;2
818.944;174.0;3.30506e-39;1.0;2
820.177;174.25;7.33261e-40;1.0;2
821.41;174.5;1.6072e-40;1.0;2
822.643;174.75;3.47636e-41;1.0;2
823.877;175.0;7.41683e-42;1.0;2
825.111;175.25;1.56157e-42;1.0;2
826.346;175.5;3.24397e-43;1.0;2
827.58;175.75;6.66016e-44;1.0;2
828.815;176.0;1.3476e-44;1.0;2
830.051;176.25;2.69235e-45;1.0;2
831.283;176.5;5.33248e-46;1.0;2
832.518;176.75;1.03832e-46;1.0;2
833.752;177.0;2.0003e-47;1.0;2
834.987;177.25;3.79591e-48;1.0;2
836.222;177.5;7.11998e-49;1.0;2
837.455;177.75;1.32115e-49;1.0;2
838.691;178.0;2.41189e-50;1.0;2
839.927;178.25;4.34343e-51;1.0;2
841.162;178.5;7.73118e-52;1.0;2
842.396;178.75;1.36133e-52;1.0;2
843.63;179.0;2.3677e-53;1.0;2
844.866;179.25;4.05363e-54;1.0;2
846.101;179.5;6.8536e-55;1.0;2
847.336;179.75;1.14626e-55;1.0;2
848.569;180.0;1.89401e-56;1.0;2
849.801;180.25;3.09915e-57;1.0;2
851.034;180.5;4.99681e-58;1.0;2
852.2652;180.75;7.97973e-59;1.0;2
853.5;181.0;1.25165e-59;1.0;2
854.7352;181.25;1.93489e-60;1.0;2
855.969;181.5;2.95959e-61;1.0;2
857.203;181.75;4.47341e-62;1.0;2
858.438;182.0;6.662e-63;1.0;2
859.672;182.25;9.80641e-64;1.0;2
860.904;182.5;1.4288e-64;1.0;2
862.139;182.75;2.04981e-65;1.0;2
863.372;183.0;2.90693e-66;1.0;2
864.607;183.25;4.06003e-67;1.0;2
865.842;183.5;5.5973e-68;1.0;2
867.076;183.75;7.63275e-69;1.0;2
868.312;184.0;1.02424e-69;1.0;2
869.548;184.25;1.35744e-70;1.0;2
870.783;184.5;1.7785e-71;1.0;2
872.0177;184.75;2.30048e-72;1.0;2
873.2523;185.0;2.93946e-73;1.0;2
874.487;185.25;3.70972e-74;1.0;2
875.721;185.5;4.62615e-75;1.0;2
876.955;185.75;5.69007e-76;1.0;2
878.1884;186.0;6.92141e-77;1.0;2
879.421;186.25;8.31924e-78;1.0;2
880.653;186.5;9.89481e-79;1.0;2
881.887;186.75;1.15812e-79;1.0;2
883.121;187.0;1.33557e-80;1.0;2
884.353;187.25;1.52771e-81;1.0;2
885.587;187.5;1.72152e-82;1.0;2
886.822;187.75;1.91057e-83;1.0;2
888.055;188.0;2.09831e-84;1.0;2
889.289;188.25;2.27479e-85;1.0;2
890.521;188.5;2.43893e-86;1.0;2
891.756;188.75;2.57206e-87;1.0;2
892.986;189.0;2.6994e-88;1.0;2
894.216;189.25;2.79939e-89;1.0;2
895.45;189.5;2.84437e-90;1.0;2
896.682;189.75;2.86574e-91;1.0;2
897.912;190.0;2.85829e-92;1.0;2
899.145;190.25;2.80349e-93;1.0;2
900.3779;190.5;2.71201e-94;1.0;2
901.61;190.75;2.59295e-95;1.0;2
902.845;191.0;2.43687e-96;1.0;2
904.0798;191.25;2.26214e-97;1.0;2
905.315;191.5;2.06921e-98;1.0;2
906.55;191.75;1.87035e-99;1.0;2