File: src/data/kinetics/q5/peak_1.txt
#EXPORTTYPE:DATA SINGLE
#FILE:00592013__Al2O3_900_5_N2_20_air_20.ngb-ds1
#FTYPE:ANSI
#IDENTITY:005920
#DECIMAL:POINT
#SEPARATOR:SEMICOLON
#MTYPE:DSC
#PROJECT:
#DATE/TIME:21.07.2025 08:33
#CORR. FILE:005919_bline_Al2O3_900_5_N2_20_air_20.ngb-bs1
#TEMPCAL:TCALZERO.TCX
#SENSITIVITY:SENSZERO.EXX
#LABORATORY: 11
#OPERATOR:
#REMARK:
#SAMPLE:1
#SAMPLE MASS /mg:9.99
#MATERIAL:
#REFERENCE:
#REFERENCE MASS /mg:0
#TYPE OF CRUCIBLE:DSC/TG pan Al2O3
#SAMPLE CRUCIBLE MASS /mg:0
#REFERENCE CRUCIBLE MASS /mg:0
#DSC RANGE /V:5000
#TG RANGE /mg:5000
#TAU-R:---
#CORR. CODE:020
#EXO:+1
#RANGE:35C/00:00/35C/5,0(K/min)/920C/
#SEGMENT:S1-2/2
#SEG. 1:35C/00:15/35C
#SEG. 2:35C/5,0(K/min)/920C

##Temp./C;Time/min;DSC/(uV/mg);Sensit./(uV/mW);Segment
34.17636;0.25;0.0;1.0;1
34.17971;0.5;0.0;1.0;1
34.17888;0.75;0.0;1.0;1
34.17688;1.0;0.0;1.0;1
34.17253;1.25;0.0;1.0;1
34.17059;1.5;0.0;1.0;1
34.16876;1.75;0.0;1.0;1
34.16682;2.0;0.0;1.0;1
34.16441;2.25;0.0;1.0;1
34.16576;2.5;0.0;1.0;1
34.17024;2.75;0.0;1.0;1
34.16623;3.0;0.0;1.0;1
34.16288;3.25;0.0;1.0;1
34.16018;3.5;0.0;1.0;1
34.158;3.75;0.0;1.0;1
34.16165;4.0;0.0;1.0;1
34.16312;4.25;0.0;1.0;1
34.16582;4.5;0.0;1.0;1
34.16759;4.75;0.0;1.0;1
34.16271;5.0;0.0;1.0;1
34.15965;5.25;0.0;1.0;1
34.15641;5.5;0.0;1.0;1
34.15535;5.75;0.0;1.0;1
34.15588;6.0;0.0;1.0;1
34.15641;6.25;0.0;1.0;1
34.15753;6.5;0.0;1.0;1
34.15565;6.75;0.0;1.0;1
34.15471;7.0;0.0;1.0;1
34.15547;7.25;0.0;1.0;1
34.15894;7.5;0.0;1.0;1
34.15988;7.75;0.0;1.0;1
34.157;8.0;0.0;1.0;1
34.15382;8.25;0.0;1.0;1
34.15247;8.5;0.0;1.0;1
34.15324;8.75;0.0;1.0;1
34.15406;9.0;0.0;1.0;1
34.15082;9.25;0.0;1.0;1
34.15171;9.5;0.0;1.0;1
34.15165;9.75;0.0;1.0;1
34.15165;10.0;0.0;1.0;1
34.15094;10.25;0.0;1.0;1
34.14553;10.5;0.0;1.0;1
34.14282;10.75;0.0;1.0;1
34.14235;11.0;0.0;1.0;1
34.13906;11.25;0.0;1.0;1
34.13618;11.5;0.0;1.0;1
34.13253;11.75;0.0;1.0;1
34.12859;12.0;0.0;1.0;1
34.12518;12.25;0.0;1.0;1
34.12371;12.5;0.0;1.0;1
34.123;12.75;0.0;1.0;1
34.12447;13.0;0.0;1.0;1
34.12429;13.25;0.0;1.0;1
34.12471;13.5;0.0;1.0;1
34.12024;13.75;0.0;1.0;1
34.115;14.0;0.0;1.0;1
34.10647;14.25;0.0;1.0;1
34.10235;14.5;0.0;1.0;1
34.10264;14.75;0.0;1.0;1
34.11549;15.0;0.0;1.0;2
34.10516;15.25;0.0;1.0;2
34.13672;15.5;0.0;1.0;2
34.23371;15.75;0.0;1.0;2
34.42622;16.0;0.0;1.0;2
34.72104;16.25;0.0;1.0;2
35.12375;16.5;0.0;1.0;2
35.61708;16.75;0.0;1.0;2
36.1925;17.0;0.0;1.0;2
36.83655;17.25;0.0;1.0;2
37.54164;17.5;0.0;1.0;2
38.29774;17.75;0.0;1.0;2
39.09878;18.0;0.0;1.0;2
39.94421;18.25;0.0;1.0;2
40.82469;18.5;0.0;1.0;2
41.7454;18.75;0.0;1.0;2
42.69183;19.0;0.0;1.0;2
43.66753;19.25;0.0;1.0;2
44.66731;19.5;0.0;1.0;2
45.6928;19.75;0.0;1.0;2
46.74168;20.0;0.0;1.0;2
47.8057;20.25;0.0;1.0;2
48.88834;20.5;0.0;1.0;2
49.98967;20.75;0.0;1.0;2
51.10446;21.0;0.0;1.0;2
52.23305;21.25;0.0;1.0;2
53.37523;21.5;0.0;1.0;2
54.5253;21.75;0.0;1.0;2
55.68474;22.0;0.0;1.0;2
56.85935;22.25;0.0;1.0;2
58.04364;22.5;0.0;1.0;2
59.23476;22.75;0.0;1.0;2
60.43665;23.0;0.0;1.0;2
61.64896;23.25;0.0;1.0;2
62.86358;23.5;0.0;1.0;2
64.0847;23.75;0.0;1.0;2
65.30787;24.0;0.0;1.0;2
66.53528;24.25;0.0;1.0;2
67.76738;24.5;0.0;1.0;2
69.00398;24.75;0.0;1.0;2
70.24448;25.0;0.0;1.0;2
71.48621;25.25;0.0;1.0;2
72.72937;25.5;0.0;1.0;2
73.97395;25.75;0.0;1.0;2
75.22398;26.0;0.0;1.0;2
76.46965;26.25;0.0;1.0;2
77.71669;26.5;0.0;1.0;2
78.96561;26.75;0.0;1.0;2
80.21691;27.0;0.0;1.0;2
81.47146;27.25;0.0;1.0;2
82.72618;27.5;0.0;1.0;2
83.9838;27.75;0.0;1.0;2
85.24469;28.0;0.0;1.0;2
86.50762;28.25;0.0;1.0;2
87.77336;28.5;0.0;1.0;2
89.03755;28.75;0.0;1.0;2
90.30329;29.0;0.0;1.0;2
91.5698;29.25;0.0;1.0;2
92.84121;29.5;0.0;1.0;2
94.11325;29.75;0.0;1.0;2
95.38379;30.0;0.0;1.0;2
96.65528;30.25;0.0;1.0;2
97.92917;30.5;0.0;1.0;2
99.20502;30.75;0.0;1.0;2
100.482;31.0;0.0;1.0;2
101.761;31.25;0.0;1.0;2
103.0401;31.5;0.0;1.0;2
104.318;31.75;0.0;1.0;2
105.595;32.0;0.0;1.0;2
106.873;32.25;0.0;1.0;2
108.15;32.5;0.0;1.0;2
109.424;32.75;0.0;1.0;2
110.698;33.0;0.0;1.0;2
111.973;33.25;0.0;1.0;2
113.248;33.5;0.0;1.0;2
114.5243;33.75;0.0;1.0;2
115.8;34.0;0.0;1.0;2
117.071;34.25;0.0;1.0;2
118.344;34.5;0.0;1.0;2
119.615;34.75;0.0;1.0;2
120.886;35.0;0.0;1.0;2
122.16;35.25;0.0;1.0;2
123.434;35.5;0.0;1.0;2
124.708;35.75;0.0;1.0;2
125.984;36.0;0.0;1.0;2
127.259;36.25;0.0;1.0;2
128.536;36.5;0.0;1.0;2
129.815;36.75;0.0;1.0;2
131.096;37.0;0.0;1.0;2
132.375;37.25;0.0;1.0;2
133.6561;37.5;0.0;1.0;2
134.935;37.75;0.0;1.0;2
136.213;38.0;0.0;1.0;2
137.494;38.25;0.0;1.0;2
138.773;38.5;0.0;1.0;2
140.055;38.75;0.0;1.0;2
141.336;39.0;0.0;1.0;2
142.619;39.25;0.0;1.0;2
143.902;39.5;0.0;1.0;2
145.189;39.75;0.0;1.0;2
146.477;40.0;0.0;1.0;2
147.764;40.25;0.0;1.0;2
149.052;40.5;0.0;1.0;2
150.3408;40.75;0.0;1.0;2
151.63;41.0;0.0;1.0;2
152.914;41.25;0.0;1.0;2
154.201;41.5;0.0;1.0;2
155.491;41.75;0.0;1.0;2
156.779;42.0;0.0;1.0;2
158.066;42.25;0.0;1.0;2
159.352;42.5;0.0;1.0;2
160.638;42.75;0.0;1.0;2
161.923;43.0;0.0;1.0;2
163.2086;43.25;0.0;1.0;2
164.4928;43.5;0.0;1.0;2
165.782;43.75;0.0;1.0;2
167.069;44.0;0.0;1.0;2
168.35;44.25;0.0;1.0;2
169.63;44.5;0.0;1.0;2
170.916;44.75;0.0;1.0;2
172.2;45.0;0.0;1.0;2
173.484;45.25;0.0;1.0;2
174.772;45.5;0.0;1.0;2
176.055;45.75;0.0;1.0;2
177.339;46.0;0.0;1.0;2
178.6242;46.25;0.0;1.0;2
179.907;46.5;0.0;1.0;2
181.188;46.75;0.0;1.0;2
182.47;47.0;0.0;1.0;2
183.751;47.25;0.0;1.0;2
185.034;47.5;0.0;1.0;2
186.318;47.75;0.0;1.0;2
187.6;48.0;0.0;1.0;2
188.884;48.25;0.0;1.0;2
190.169;48.5;0.0;1.0;2
191.455;48.75;0.0;1.0;2
192.741;49.0;0.0;1.0;2
194.027;49.25;0.0;1.0;2
195.314;49.5;0.0;1.0;2
196.596;49.75;0.0;1.0;2
197.878;50.0;0.0;1.0;2
199.164;50.25;0.0;1.0;2
200.448;50.5;0.0;1.0;2
201.731;50.75;0.0;1.0;2
203.018;51.0;0.0;1.0;2
204.303;51.25;0.0;1.0;2
205.589;51.5;0.0;1.0;2
206.875;51.75;0.0;1.0;2
208.16;52.0;0.0;1.0;2
209.443;52.25;0.0;1.0;2
210.727;52.5;0.0;1.0;2
212.011;52.75;0.0;1.0;2
213.2936;53.0;0.0;1.0;2
214.5738;53.25;0.0;1.0;2
215.857;53.5;0.0;1.0;2
217.1376;53.75;0.0;1.0;2
218.417;54.0;0.0;1.0;2
219.696;54.25;0.0;1.0;2
220.974;54.5;0.0;1.0;2
222.254;54.75;0.0;1.0;2
223.532;55.0;0.0;1.0;2
224.81;55.25;0.0;1.0;2
226.091;55.5;0.0;1.0;2
227.368;55.75;0.0;1.0;2
228.648;56.0;0.0;1.0;2
229.928;56.25;0.0;1.0;2
231.206;56.5;0.0;1.0;2
232.486;56.75;0.0;1.0;2
233.765;57.0;0.0;1.0;2
235.045;57.25;0.0;1.0;2
236.323;57.5;0.0;1.0;2
237.601;57.75;0.0;1.0;2
238.878;58.0;0.0;1.0;2
240.155;58.25;0.0;1.0;2
241.433;58.5;0.0;1.0;2
242.71;58.75;0.0;1.0;2
243.985;59.0;0.0;1.0;2
245.262;59.25;0.0;1.0;2
246.539;59.5;0.0;1.0;2
247.816;59.75;0.0;1.0;2
249.096;60.0;0.0;1.0;2
250.374;60.25;0.0;1.0;2
251.654;60.5;0.0;1.0;2
252.931;60.75;0.0;1.0;2
254.205;61.0;0.0;1.0;2
255.482;61.25;0.0;1.0;2
256.759;61.5;0.0;1.0;2
258.036;61.75;0.0;1.0;2
259.311;62.0;0.0;1.0;2
260.5913;62.25;0.0;1.0;2
261.867;62.5;0.0;1.0;2
263.142;62.75;0.0;1.0;2
264.4204;63.0;0.0;1.0;2
265.7;63.25;0.0;1.0;2
266.978;63.5;0.0;1.0;2
268.256;63.75;0.0;1.0;2
269.535;64.0;0.0;1.0;2
270.812;64.25;0.0;1.0;2
272.086;64.5;0.0;1.0;2
273.359;64.75;0.0;1.0;2
274.632;65.0;0.0;1.0;2
275.906;65.25;0.0;1.0;2
277.181;65.5;0.0;1.0;2
278.456;65.75;0.0;1.0;2
279.729;66.0;0.0;1.0;2
281.006;66.25;0.0;1.0;2
282.284;66.5;0.0;1.0;2
283.56;66.75;0.0;1.0;2
284.836;67.0;0.0;1.0;2
286.111;67.25;0.0;1.0;2
287.388;67.5;0.0;1.0;2
288.666;67.75;0.0;1.0;2
289.94;68.0;0.0;1.0;2
291.213;68.25;0.0;1.0;2
292.485;68.5;0.0;1.0;2
293.757;68.75;0.0;1.0;2
295.031;69.0;0.0;1.0;2
296.307;69.25;0.0;1.0;2
297.582;69.5;0.0;1.0;2
298.8559;69.75;0.0;1.0;2
300.129;70.0;0.0;1.0;2
301.402;70.25;0.0;1.0;2
302.675;70.5;0.0;1.0;2
303.947;70.75;0.0;1.0;2
305.218;71.0;0.0;1.0;2
306.486;71.25;0.0;1.0;2
307.755;71.5;0.0;1.0;2
309.028;71.75;0.0;1.0;2
310.299;72.0;0.0;1.0;2
311.568;72.25;0.0;1.0;2
312.838;72.5;0.0;1.0;2
314.107;72.75;0.0;1.0;2
315.373;73.0;0.0;1.0;2
316.642;73.25;0.0;1.0;2
317.912;73.5;0.0;1.0;2
319.1809;73.75;0.0;1.0;2
320.449;74.0;0.0;1.0;2
321.7193;74.25;0.0;1.0;2
322.988;74.5;0.0;1.0;2
324.258;74.75;0.0;1.0;2
325.526;75.0;0.0;1.0;2
326.7946;75.25;0.0;1.0;2
328.063;75.5;0.0;1.0;2
329.332;75.75;0.0;1.0;2
330.599;76.0;0.0;1.0;2
331.868;76.25;0.0;1.0;2
333.139;76.5;0.0;1.0;2
334.409;76.75;0.0;1.0;2
335.672;77.0;0.0;1.0;2
336.935;77.25;0.0;1.0;2
338.201;77.5;0.0;1.0;2
339.467;77.75;0.0;1.0;2
340.734;78.0;0.0;1.0;2
342.001;78.25;0.0;1.0;2
343.267;78.5;0.0;1.0;2
344.533;78.75;0.0;1.0;2
345.801;79.0;0.0;1.0;2
347.068;79.25;0.0;1.0;2
348.3319;79.5;0.0;1.0;2
349.596;79.75;0.0;1.0;2
350.862;80.0;0.0;1.0;2
352.1271;80.25;0.0;1.0;2
353.392;80.5;0.0;1.0;2
354.658;80.75;0.0;1.0;2
355.923;81.0;0.0;1.0;2
357.19;81.25;0.0;1.0;2
358.457;81.5;0.0;1.0;2
359.7225;81.75;0.0;1.0;2
360.985;82.0;0.0;1.0;2
362.2481;82.25;0.0;1.0;2
363.513;82.5;0.0;1.0;2
364.776;82.75;0.0;1.0;2
366.039;83.0;0.0;1.0;2
367.303;83.25;0.0;1.0;2
368.565;83.5;0.0;1.0;2
369.826;83.75;0.0;1.0;2
371.086;84.0;0.0;1.0;2
372.3491;84.25;0.0;1.0;2
373.6113;84.5;0.0;1.0;2
374.87;84.75;0.0;1.0;2
376.134;85.0;0.0;1.0;2
377.3972;85.25;0.0;1.0;2
378.66;85.5;0.0;1.0;2
379.921;85.75;0.0;1.0;2
381.179;86.0;0.0;1.0;2
382.438;86.25;0.0;1.0;2
383.7;86.5;0.0;1.0;2
384.959;86.75;0.0;1.0;2
386.2178;87.0;0.0;1.0;2
387.478;87.25;0.0;1.0;2
388.738;87.5;0.0;1.0;2
389.998;87.75;0.0;1.0;2
391.254;88.0;0.0;1.0;2
392.51;88.25;0.0;1.0;2
393.773;88.5;0.0;1.0;2
395.0354;88.75;0.0;1.0;2
396.297;89.0;0.0;1.0;2
397.556;89.25;0.0;1.0;2
398.817;89.5;0.0;1.0;2
400.079;89.75;5.0e-324;1.0;2
401.34;90.0;1.819733e-317;1.0;2
402.599;90.25;8.87871e-311;1.0;2
403.858;90.5;3.71028e-304;1.0;2
405.119;90.75;1.33465e-297;1.0;2
406.379;91.0;4.00986e-291;1.0;2
407.638;91.25;1.01531e-284;1.0;2
408.901;91.5;2.28148e-278;1.0;2
410.16;91.75;4.12566e-272;1.0;2
411.418;92.0;6.28567e-266;1.0;2
412.676;92.25;8.1416e-260;1.0;2
413.935;92.5;9.02798e-254;1.0;2
415.192;92.75;8.25781e-248;1.0;2
416.4495;93.0;6.50758e-242;1.0;2
417.706;93.25;4.29358e-236;1.0;2
418.9638;93.5;2.43147e-230;1.0;2
420.221;93.75;1.16536e-224;1.0;2
421.478;94.0;4.69718e-219;1.0;2
422.7334;94.25;1.59052e-213;1.0;2
423.99;94.5;4.61168e-208;1.0;2
425.248;94.75;1.15394e-202;1.0;2
426.506;95.0;2.45209e-197;1.0;2
427.762;95.25;4.33408e-192;1.0;2
429.019;95.5;6.53023e-187;1.0;2
430.275;95.75;8.2737e-182;1.0;2
431.534;96.0;9.23916e-177;1.0;2
432.795;96.25;8.84569e-172;1.0;2
434.053;96.5;6.98881e-167;1.0;2
435.313;96.75;4.73653e-162;1.0;2
436.573;97.0;2.75605e-157;1.0;2
437.835;97.25;1.37538e-152;1.0;2
439.093;97.5;5.59976e-148;1.0;2
440.3477;97.75;1.89484e-143;1.0;2
441.604;98.0;5.5199e-139;1.0;2
442.859;98.25;1.34079e-134;1.0;2
444.117;98.5;2.85556e-130;1.0;2
445.377;98.75;5.19675e-126;1.0;2
446.638;99.0;8.10529e-122;1.0;2
447.8979;99.25;1.06641e-117;1.0;2
449.159;99.5;1.19873e-113;1.0;2
450.419;99.75;1.13039e-109;1.0;2
451.676;100.0;8.88681e-106;1.0;2
452.933;100.25;5.91615e-102;1.0;2
454.189;100.5;3.30699e-98;1.0;2
455.4418;100.75;1.53985e-94;1.0;2
456.696;101.0;6.15977e-91;1.0;2
457.9502;101.25;2.08565e-87;1.0;2
459.202;101.5;5.91203e-84;1.0;2
460.455;101.75;1.44029e-80;1.0;2
461.713;102.0;3.05371e-77;1.0;2
462.968;102.25;5.41108e-74;1.0;2
464.222;102.5;8.0893e-71;1.0;2
465.4741;102.75;1.01782e-67;1.0;2
466.727;103.0;1.0924e-64;1.0;2
467.98;103.25;9.94725e-62;1.0;2
469.233;103.5;7.69039e-59;1.0;2
470.486;103.75;5.07277e-56;1.0;2
471.739;104.0;2.83188e-53;1.0;2
472.992;104.25;1.34418e-50;1.0;2
474.243;104.5;5.37886e-48;1.0;2
475.4947;104.75;1.83044e-45;1.0;2
476.747;105.0;5.30789e-43;1.0;2
477.9978;105.25;1.30134e-40;1.0;2
479.249;105.5;2.71236e-38;1.0;2
480.501;105.75;4.83207e-36;1.0;2
481.753;106.0;7.29489e-34;1.0;2
483.006;106.25;9.38284e-32;1.0;2
484.256;106.5;1.01907e-29;1.0;2
485.507;106.75;9.40239e-28;1.0;2
486.76;107.0;7.44268e-26;1.0;2
488.013;107.25;4.99292e-24;1.0;2
489.266;107.5;2.84688e-22;1.0;2
490.52;107.75;1.38385e-20;1.0;2
491.772;108.0;5.68215e-19;1.0;2
493.024;108.25;1.97976e-17;1.0;2
494.278;108.5;5.89364e-16;1.0;2
495.531;108.75;1.48704e-14;1.0;2
496.782;109.0;3.17316e-13;1.0;2
498.034;109.25;5.77747e-12;1.0;2
499.287;109.5;8.93578e-11;1.0;2
500.541;109.75;1.17653e-09;1.0;2
501.7957;110.0;1.31727e-08;1.0;2
503.048;110.25;1.24827e-07;1.0;2
504.301;110.5;1.00454e-06;1.0;2
505.554;110.75;6.87088e-06;1.0;2
506.804;111.0;3.98171e-05;1.0;2
508.055;111.25;0.000196064;1.0;2
509.307;111.5;0.000822332;1.0;2
510.562;111.75;0.00293658;1.0;2
511.798;112.0;0.0087711;1.0;2
513.034;112.25;0.0223535;1.0;2
514.314;112.5;0.0498252;1.0;2
515.603;112.75;0.0939742;1.0;2
516.891;113.0;0.149175;1.0;2
518.177;113.25;0.199196;1.0;2
519.459;113.5;0.223987;1.0;2
520.74;113.75;0.212336;1.0;2
522.021;114.0;0.169726;1.0;2
523.318;114.25;0.113715;1.0;2
524.658;114.5;0.0625722;1.0;2
526.025;114.75;0.0280744;1.0;2
527.4373;115.0;0.0100031;1.0;2
528.914;115.25;0.00272329;1.0;2
530.34;115.5;0.000625414;1.0;2
531.691;115.75;0.000127675;1.0;2
533;116.0;2.28728e-05;1.0;2
534.277;116.25;3.59782e-06;1.0;2
535.532;116.5;4.95427e-07;1.0;2
536.77;116.75;5.96628e-08;1.0;2
537.996;117.0;6.2659e-09;1.0;2
539.218;117.25;5.67861e-10;1.0;2
540.437;117.5;4.43747e-11;1.0;2
541.654;117.75;2.98325e-12;1.0;2
542.871;118.0;1.72024e-13;1.0;2
544.086;118.25;8.54581e-15;1.0;2
545.2994;118.5;3.65478e-16;1.0;2
546.514;118.75;1.3373e-17;1.0;2
547.731;119.0;4.17274e-19;1.0;2
548.947;119.25;1.11714e-20;1.0;2
550.163;119.5;2.57089e-22;1.0;2
551.381;119.75;5.03818e-24;1.0;2
552.601;120.0;8.40169e-26;1.0;2
553.823;120.25;1.19152e-27;1.0;2
555.046;120.5;1.44118e-29;1.0;2
556.2706;120.75;1.48493e-31;1.0;2
557.497;121.0;1.29899e-33;1.0;2
558.723;121.25;9.74633e-36;1.0;2
559.947;121.5;6.29212e-38;1.0;2
561.172;121.75;3.4702e-40;1.0;2
562.398;122.0;1.63017e-42;1.0;2
563.624;122.25;6.5372e-45;1.0;2
564.8499;122.5;2.24618e-47;1.0;2
566.077;122.75;6.55767e-50;1.0;2
567.305;123.0;1.63623e-52;1.0;2
568.536;123.25;3.42837e-55;1.0;2
569.766;123.5;6.15768e-58;1.0;2
570.995;123.75;9.48999e-61;1.0;2
572.223;124.0;1.26547e-63;1.0;2
573.451;124.25;1.43752e-66;1.0;2
574.685;124.5;1.34918e-69;1.0;2
575.917;124.75;1.09131e-72;1.0;2
577.149;125.0;7.56439e-76;1.0;2
578.389;125.25;4.25591e-79;1.0;2
579.631;125.5;2.01321e-82;1.0;2
580.8682;125.75;8.3795e-86;1.0;2
582.1069;126.0;2.94592e-89;1.0;2
583.346;126.25;8.81932e-93;1.0;2
584.581;126.5;2.30776e-96;1.0;2
585.816;126.75;5.16153e-100;1.0;2
587.052;127.0;9.75905e-104;1.0;2
588.2876;127.25;1.58568e-107;1.0;2
589.524;127.5;2.18863e-111;1.0;2
590.7589;127.75;2.58855e-115;1.0;2
591.998;128.0;2.532e-119;1.0;2
593.24;128.25;2.08382e-123;1.0;2
594.481;128.5;1.46582e-127;1.0;2
595.723;128.75;8.70501e-132;1.0;2
596.964;129.0;4.41848e-136;1.0;2
598.207;129.25;1.89015e-140;1.0;2
599.451;129.5;6.84956e-145;1.0;2
600.693;129.75;2.13459e-149;1.0;2
601.936;130.0;5.66591e-154;1.0;2
603.178;130.25;1.2796e-158;1.0;2
604.421;130.5;2.44404e-163;1.0;2
605.666;130.75;3.92558e-168;1.0;2
606.909;131.0;5.48558e-173;1.0;2
608.15;131.25;6.5826e-178;1.0;2
609.393;131.5;6.623e-183;1.0;2
610.636;131.75;5.70723e-188;1.0;2
611.878;132.0;4.21883e-193;1.0;2
613.123;132.25;2.57005e-198;1.0;2
614.366;132.5;1.36701e-203;1.0;2
615.6071;132.75;6.2833e-209;1.0;2
616.8482;133.0;2.46476e-214;1.0;2
618.089;133.25;8.26047e-220;1.0;2
619.3303;133.5;2.3489e-225;1.0;2
620.572;133.75;5.63704e-231;1.0;2
621.815;134.0;1.14546e-236;1.0;2
623.054;134.25;2.07309e-242;1.0;2
624.294;134.5;3.15797e-248;1.0;2
625.534;134.75;4.0704e-254;1.0;2
626.776;135.0;4.41537e-260;1.0;2
628.015;135.25;4.19147e-266;1.0;2
629.254;135.5;3.40875e-272;1.0;2
630.492;135.75;2.37998e-278;1.0;2
631.726;136.0;1.47438e-284;1.0;2
632.962;136.25;7.74698e-291;1.0;2
634.196;136.5;3.49861e-297;1.0;2
635.431;136.75;1.35717e-303;1.0;2
636.6665;137.0;4.39624e-310;1.0;2
637.901;137.25;1.23263e-316;1.0;2
639.138;137.5;3.0e-323;1.0;2
640.374;137.75;0.0;1.0;2
641.611;138.0;0.0;1.0;2
642.848;138.25;0.0;1.0;2
644.087;138.5;0.0;1.0;2
645.323;138.75;0.0;1.0;2
646.558;139.0;0.0;1.0;2
647.793;139.25;0.0;1.0;2
649.027;139.5;0.0;1.0;2
650.261;139.75;0.0;1.0;2
651.493;140.0;0.0;1.0;2
652.725;140.25;0.0;1.0;2
653.958;140.5;0.0;1.0;2
655.188;140.75;0.0;1.0;2
656.4166;141.0;0.0;1.0;2
657.646;141.25;0.0;1.0;2
658.874;141.5;0.0;1.0;2
660.101;141.75;0.0;1.0;2
661.33;142.0;0.0;1.0;2
662.559;142.25;0.0;1.0;2
663.787;142.5;0.0;1.0;2
665.017;142.75;0.0;1.0;2
666.247;143.0;0.0;1.0;2
667.4744;143.25;0.0;1.0;2
668.703;143.5;0.0;1.0;2
669.931;143.75;0.0;1.0;2
671.154;144.0;0.0;1.0;2
672.376;144.25;0.0;1.0;2
673.597;144.5;0.0;1.0;2
674.8184;144.75;0.0;1.0;2
676.039;145.0;0.0;1.0;2
677.258;145.25;0.0;1.0;2
678.477;145.5;0.0;1.0;2
679.697;145.75;0.0;1.0;2
680.915;146.0;0.0;1.0;2
682.131;146.25;0.0;1.0;2
683.346;146.5;0.0;1.0;2
684.56;146.75;0.0;1.0;2
685.775;147.0;0.0;1.0;2
686.986;147.25;0.0;1.0;2
688.196;147.5;0.0;1.0;2
689.407;147.75;0.0;1.0;2
690.618;148.0;0.0;1.0;2
691.831;148.25;0.0;1.0;2
693.043;148.5;0.0;1.0;2
694.256;148.75;0.0;1.0;2
695.473;149.0;0.0;1.0;2
696.694;149.25;0.0;1.0;2
697.916;149.5;0.0;1.0;2
699.142;149.75;0.0;1.0;2
700.371;150.0;0.0;1.0;2
701.601;150.25;0.0;1.0;2
702.831;150.5;0.0;1.0;2
704.06;150.75;0.0;1.0;2
705.291;151.0;0.0;1.0;2
706.526;151.25;0.0;1.0;2
707.761;151.5;0.0;1.0;2
708.999;151.75;0.0;1.0;2
710.236;152.0;0.0;1.0;2
711.471;152.25;0.0;1.0;2
712.7091;152.5;0.0;1.0;2
713.945;152.75;0.0;1.0;2
715.181;153.0;0.0;1.0;2
716.416;153.25;0.0;1.0;2
717.649;153.5;0.0;1.0;2
718.885;153.75;0.0;1.0;2
720.121;154.0;0.0;1.0;2
721.3571;154.25;0.0;1.0;2
722.592;154.5;0.0;1.0;2
723.827;154.75;0.0;1.0;2
725.061;155.0;0.0;1.0;2
726.296;155.25;0.0;1.0;2
727.532;155.5;0.0;1.0;2
728.769;155.75;0.0;1.0;2
730.006;156.0;0.0;1.0;2
731.242;156.25;0.0;1.0;2
732.478;156.5;0.0;1.0;2
733.712;156.75;0.0;1.0;2
734.95;157.0;0.0;1.0;2
736.187;157.25;0.0;1.0;2
737.423;157.5;0.0;1.0;2
738.661;157.75;0.0;1.0;2
739.898;158.0;0.0;1.0;2
741.135;158.25;0.0;1.0;2
742.371;158.5;0.0;1.0;2
743.607;158.75;0.0;1.0;2
744.842;159.0;0.0;1.0;2
746.0747;159.25;0.0;1.0;2
747.308;159.5;0.0;1.0;2
748.542;159.75;0.0;1.0;2
749.774;160.0;0.0;1.0;2
751.007;160.25;0.0;1.0;2
752.241;160.5;0.0;1.0;2
753.474;160.75;0.0;1.0;2
754.709;161.0;0.0;1.0;2
755.944;161.25;0.0;1.0;2
757.179;161.5;0.0;1.0;2
758.412;161.75;0.0;1.0;2
759.647;162.0;0.0;1.0;2
760.88;162.25;0.0;1.0;2
762.116;162.5;0.0;1.0;2
763.351;162.75;0.0;1.0;2
764.587;163.0;0.0;1.0;2
765.823;163.25;0.0;1.0;2
767.059;163.5;0.0;1.0;2
768.295;163.75;0.0;1.0;2
769.532;164.0;0.0;1.0;2
770.77;164.25;0.0;1.0;2
772.008;164.5;0.0;1.0;2
773.247;164.75;0.0;1.0;2
774.484;165.0;0.0;1.0;2
775.722;165.25;0.0;1.0;2
776.962;165.5;0.0;1.0;2
778.1998;165.75;0.0;1.0;2
779.436;166.0;0.0;1.0;2
780.671;166.25;0.0;1.0;2
781.905;166.5;0.0;1.0;2
783.14;166.75;0.0;1.0;2
784.3755;167.0;0.0;1.0;2
785.609;167.25;0.0;1.0;2
786.842;167.5;0.0;1.0;2
788.077;167.75;0.0;1.0;2
789.312;168.0;0.0;1.0;2
790.548;168.25;0.0;1.0;2
791.782;168.5;0.0;1.0;2
793.017;168.75;0.0;1.0;2
794.255;169.0;0.0;1.0;2
795.493;169.25;0.0;1.0;2
796.729;169.5;0.0;1.0;2
797.966;169.75;0.0;1.0;2
799.2;170.0;0.0;1.0;2
800.435;170.25;0.0;1.0;2
801.672;170.5;0.0;1.0;2
802.905;170.75;0.0;1.0;2
804.141;171.0;0.0;1.0;2
805.379;171.25;0.0;1.0;2
806.613;171.5;0.0;1.0;2
807.846;171.75;0.0;1.0;2
809.08;172.0;0.0;1.0;2
810.312;172.25;0.0;1.0;2
811.544;172.5;0.0;1.0;2
812.779;172.75;0.0;1.0;2
814.012;173.0;0.0;1.0;2
815.245;173.25;0.0;1.0;2
816.475;173.5;0.0;1.0;2
817.709;173.75;0.0;1.0;2
818.944;174.0;0.0;1.0;2
820.177;174.25;0.0;1.0;2
821.41;174.5;0.0;1.0;2
822.643;174.75;0.0;1.0;2
823.877;175.0;0.0;1.0;2
825.111;175.25;0.0;1.0;2
826.346;175.5;0.0;1.0;2
827.58;175.75;0.0;1.0;2
828.815;176.0;0.0;1.0;2
830.051;176.25;0.0;1.0;2
831.283;176.5;0.0;1.0;2
832.518;176.75;0.0;1.0;2
833.752;177.0;0.0;1.0;2
834.987;177.25;0.0;1.0;2
836.222;177.5;0.0;1.0;2
837.455;177.75;0.0;1.0;2
838.691;178.0;0.0;1.0;2
839.927;178.25;0.0;1.0;2
841.162;178.5;0.0;1.0;2
842.396;178.75;0.0;1.0;2
843.63;179.0;0.0;1.0;2
844.866;179.25;0.0;1.0;2
846.101;179.5;0.0;1.0;2
847.336;179.75;0.0;1.0;2
848.569;180.0;0.0;1.0;2
849.801;180.25;0.0;1.0;2
851.034;180.5;0.0;1.0;2
852.2652;180.75;0.0;1.0;2
853.5;181.0;0.0;1.0;2
854.7352;181.25;0.0;1.0;2
855.969;181.5;0.0;1.0;2
857.203;181.75;0.0;1.0;2
858.438;182.0;0.0;1.0;2
859.672;182.25;0.0;1.0;2
860.904;182.5;0.0;1.0;2
862.139;182.75;0.0;1.0;2
863.372;183.0;0.0;1.0;2
864.607;183.25;0.0;1.0;2
865.842;183.5;0.0;1.0;2
867.076;183.75;0.0;1.0;2
868.312;184.0;0.0;1.0;2
869.548;184.25;0.0;1.0;2
870.783;184.5;0.0;1.0;2
872.0177;184.75;0.0;1.0;2
873.2523;185.0;0.0;1.0;2
874.487;185.25;0.0;1.0;2
875.721;185.5;0.0;1.0;2
876.955;185.75;0.0;1.0;2
878.1884;186.0;0.0;1.0;2
879.421;186.25;0.0;1.0;2
880.653;186.5;0.0;1.0;2
881.887;186.75;0.0;1.0;2
883.121;187.0;0.0;1.0;2
884.353;187.25;0.0;1.0;2
885.587;187.5;0.0;1.0;2
886.822;187.75;0.0;1.0;2
888.055;188.0;0.0;1.0;2
889.289;188.25;0.0;1.0;2
890.521;188.5;0.0;1.0;2
891.756;188.75;0.0;1.0;2
892.986;189.0;0.0;1.0;2
894.216;189.25;0.0;1.0;2
895.45;189.5;0.0;1.0;2
896.682;189.75;0.0;1.0;2
897.912;190.0;0.0;1.0;2
899.145;190.25;0.0;1.0;2
900.3779;190.5;0.0;1.0;2
901.61;190.75;0.0;1.0;2
902.845;191.0;0.0;1.0;2
904.0798;191.25;0.0;1.0;2
905.315;191.5;0.0;1.0;2
906.55;191.75;0.0;1.0;2