File: src/data/kinetics/q5/peak_2.txt
#EXPORTTYPE:DATA SINGLE
#FILE:00592013__Al2O3_900_5_N2_20_air_20.ngb-ds1
#FTYPE:ANSI
#IDENTITY:005920
#DECIMAL:POINT
#SEPARATOR:SEMICOLON
#MTYPE:DSC
#PROJECT:
#DATE/TIME:21.07.2025 08:33
#CORR. FILE:005919_bline_Al2O3_900_5_N2_20_air_20.ngb-bs1
#TEMPCAL:TCALZERO.TCX
#SENSITIVITY:SENSZERO.EXX
#LABORATORY: 11
#OPERATOR:
#REMARK:
#SAMPLE:1
#SAMPLE MASS /mg:9.99
#MATERIAL:
#REFERENCE:
#REFERENCE MASS /mg:0
#TYPE OF CRUCIBLE:DSC/TG pan Al2O3
#SAMPLE CRUCIBLE MASS /mg:0
#REFERENCE CRUCIBLE MASS /mg:0
#DSC RANGE /V:5000
#TG RANGE /mg:5000
#TAU-R:---
#CORR. CODE:020
#EXO:+1
#RANGE:35C/00:00/35C/5,0(K/min)/920C/
#SEGMENT:S1-2/2
#SEG. 1:35C/00:15/35C
#SEG. 2:35C/5,0(K/min)/920C

##Temp./C;Time/min;DSC/(uV/mg);Sensit./(uV/mW);Segment
34.17636;0.25;2.26513e-141;1.0;1
34.17971;0.5;2.2748e-141;1.0;1
34.17888;0.75;2.2724e-141;1.0;1
34.17688;1.0;2.26662e-141;1.0;1
34.17253;1.25;2.25412e-141;1.0;1
34.17059;1.5;2.24857e-141;1.0;1
34.16876;1.75;2.24334e-141;1.0;1
34.16682;2.0;2.23782e-141;1.0;1
34.16441;2.25;2.23097e-141;1.0;1
34.16576;2.5;2.2348e-141;1.0;1
34.17024;2.75;2.24757e-141;1.0;1
34.16623;3.0;2.23614e-141;1.0;1
34.16288;3.25;2.22663e-141;1.0;1
34.16018;3.5;2.219e-141;1.0;1
34.158;3.75;2.21286e-141;1.0;1
34.16165;4.0;2.22315e-141;1.0;1
34.16312;4.25;2.22731e-141;1.0;1
34.16582;4.5;2.23497e-141;1.0;1
34.16759;4.75;2.24001e-141;1.0;1
34.16271;5.0;2.22615e-141;1.0;1
34.15965;5.25;2.21751e-141;1.0;1
34.15641;5.5;2.20839e-141;1.0;1
34.15535;5.75;2.20542e-141;1.0;1
34.15588;6.0;2.2069e-141;1.0;1
34.15641;6.25;2.20839e-141;1.0;1
34.15753;6.5;2.21154e-141;1.0;1
34.15565;6.75;2.20626e-141;1.0;1
34.15471;7.0;2.20362e-141;1.0;1
34.15547;7.25;2.20575e-141;1.0;1
34.15894;7.5;2.21551e-141;1.0;1
34.15988;7.75;2.21816e-141;1.0;1
34.157;8.0;2.21005e-141;1.0;1
34.15382;8.25;2.20113e-141;1.0;1
34.15247;8.5;2.19735e-141;1.0;1
34.15324;8.75;2.19951e-141;1.0;1
34.15406;9.0;2.2018e-141;1.0;1
34.15082;9.25;2.19275e-141;1.0;1
34.15171;9.5;2.19523e-141;1.0;1
34.15165;9.75;2.19506e-141;1.0;1
34.15165;10.0;2.19506e-141;1.0;1
34.15094;10.25;2.19308e-141;1.0;1
34.14553;10.5;2.17805e-141;1.0;1
34.14282;10.75;2.17056e-141;1.0;1
34.14235;11.0;2.16926e-141;1.0;1
34.13906;11.25;2.1602e-141;1.0;1
34.13618;11.5;2.15231e-141;1.0;1
34.13253;11.75;2.14234e-141;1.0;1
34.12859;12.0;2.13163e-141;1.0;1
34.12518;12.25;2.12241e-141;1.0;1
34.12371;12.5;2.11845e-141;1.0;1
34.123;12.75;2.11653e-141;1.0;1
34.12447;13.0;2.12049e-141;1.0;1
34.12429;13.25;2.12001e-141;1.0;1
34.12471;13.5;2.12114e-141;1.0;1
34.12024;13.75;2.10912e-141;1.0;1
34.115;14.0;2.09511e-141;1.0;1
34.10647;14.25;2.07251e-141;1.0;1
34.10235;14.5;2.06168e-141;1.0;1
34.10264;14.75;2.06244e-141;1.0;1
34.11549;15.0;2.09642e-141;1.0;2
34.10516;15.25;2.06906e-141;1.0;2
34.13672;15.5;2.15378e-141;1.0;2
34.23371;15.75;2.43646e-141;1.0;2
34.42622;16.0;3.11195e-141;1.0;2
34.72104;16.25;4.52592e-141;1.0;2
35.12375;16.5;7.54673e-141;1.0;2
35.61708;16.75;1.41104e-140;1.0;2
36.1925;17.0;2.92557e-140;1.0;2
36.83655;17.25;6.61036e-140;1.0;2
37.54164;17.5;1.61167e-139;1.0;2
38.29774;17.75;4.18533e-139;1.0;2
39.09878;18.0;1.14852e-138;1.0;2
39.94421;18.25;3.3273e-138;1.0;2
40.82469;18.5;1.00547e-137;1.0;2
41.7454;18.75;3.18929e-137;1.0;2
42.69183;19.0;1.04247e-136;1.0;2
43.66753;19.25;3.52637e-136;1.0;2
44.66731;19.5;1.22626e-135;1.0;2
45.6928;19.75;4.39165e-135;1.0;2
46.74168;20.0;1.61485e-134;1.0;2
47.8057;20.25;6.03364e-134;1.0;2
48.88834;20.5;2.30031e-133;1.0;2
49.98967;20.75;8.9479e-133;1.0;2
51.10446;21.0;3.52799e-132;1.0;2
52.23305;21.25;1.41038e-131;1.0;2
53.37523;21.5;5.71462e-131;1.0;2
54.5253;21.75;2.33027e-130;1.0;2
55.68474;22.0;9.57958e-130;1.0;2
56.85935;22.25;3.99791e-129;1.0;2
58.04364;22.5;1.68236e-128;1.0;2
59.23476;22.75;7.1133e-128;1.0;2
60.43665;23.0;3.03616e-127;1.0;2
61.64896;23.25;1.30754e-126;1.0;2
62.86358;23.5;5.62599e-126;1.0;2
64.0847;23.75;2.43064e-125;1.0;2
65.30787;24.0;1.04879e-124;1.0;2
66.53528;24.25;4.53132e-124;1.0;2
67.76738;24.5;1.96132e-123;1.0;2
69.00398;24.75;8.5024e-123;1.0;2
70.24448;25.0;3.68874e-122;1.0;2
71.48621;25.25;1.59652e-121;1.0;2
72.72937;25.5;6.89494e-121;1.0;2
73.97395;25.75;2.97121e-120;1.0;2
75.22398;26.0;1.28358e-119;1.0;2
76.46965;26.25;5.49557e-119;1.0;2
77.71669;26.5;2.34753e-118;1.0;2
78.96561;26.75;1.00108e-117;1.0;2
80.21691;27.0;4.26416e-117;1.0;2
81.47146;27.25;1.81605e-116;1.0;2
82.72618;27.5;7.70549e-116;1.0;2
83.9838;27.75;3.26746e-115;1.0;2
85.24469;28.0;1.38526e-114;1.0;2
86.50762;28.25;5.86326e-114;1.0;2
87.77336;28.5;2.47974e-113;1.0;2
89.03755;28.75;1.04273e-112;1.0;2
90.30329;29.0;4.37489e-112;1.0;2
91.5698;29.25;1.8298e-111;1.0;2
92.84121;29.5;7.66468e-111;1.0;2
94.11325;29.75;3.19992e-110;1.0;2
95.38379;30.0;1.32832e-109;1.0;2
96.65528;30.25;5.4976e-109;1.0;2
97.92917;30.5;2.27223e-108;1.0;2
99.20502;30.75;9.37381e-108;1.0;2
100.482;31.0;3.85563e-107;1.0;2
101.761;31.25;1.58348e-106;1.0;2
103.0401;31.5;6.47611e-106;1.0;2
104.318;31.75;2.63445e-105;1.0;2
105.595;32.0;1.06608e-104;1.0;2
106.873;32.25;4.30156e-104;1.0;2
108.15;32.5;1.72664e-103;1.0;2
109.424;32.75;6.88414e-103;1.0;2
110.698;33.0;2.73308e-102;1.0;2
111.973;33.25;1.08093e-101;1.0;2
113.248;33.5;4.26008e-101;1.0;2
114.5243;33.75;1.67514e-100;1.0;2
115.8;34.0;6.5532e-100;1.0;2
117.071;34.25;2.53987e-99;1.0;2
118.344;34.5;9.83556e-99;1.0;2
119.615;34.75;3.78272e-98;1.0;2
120.886;35.0;1.44921e-97;1.0;2
122.16;35.25;5.54526e-97;1.0;2
123.434;35.5;2.11371e-96;1.0;2
124.708;35.75;8.02178e-96;1.0;2
125.984;36.0;3.04029e-95;1.0;2
127.259;36.25;1.14526e-94;1.0;2
128.536;36.5;4.30912e-94;1.0;2
129.815;36.75;1.61823e-93;1.0;2
131.096;37.0;6.0594e-93;1.0;2
132.375;37.25;2.25821e-92;1.0;2
133.6561;37.5;8.38959e-92;1.0;2
134.935;37.75;3.09726e-91;1.0;2
136.213;38.0;1.13828e-90;1.0;2
137.494;38.25;4.17871e-90;1.0;2
138.773;38.5;1.52516e-89;1.0;2
140.055;38.75;5.55534e-89;1.0;2
141.336;39.0;2.01528e-88;1.0;2
142.619;39.25;7.28968e-88;1.0;2
143.902;39.5;2.6276e-87;1.0;2
145.189;39.75;9.47351e-87;1.0;2
146.477;40.0;3.4019e-86;1.0;2
147.764;40.25;1.21537e-85;1.0;2
149.052;40.5;4.33018e-85;1.0;2
150.3408;40.75;1.53722e-84;1.0;2
151.63;41.0;5.43572e-84;1.0;2
152.914;41.25;1.90599e-83;1.0;2
154.201;41.5;6.6731e-83;1.0;2
155.491;41.75;2.33102e-82;1.0;2
156.779;42.0;8.10123e-82;1.0;2
158.066;42.25;2.80028e-81;1.0;2
159.352;42.5;9.6351e-81;1.0;2
160.638;42.75;3.29925e-80;1.0;2
161.923;43.0;1.1253e-79;1.0;2
163.2086;43.25;3.82001e-79;1.0;2
164.4928;43.5;1.29022e-78;1.0;2
165.782;43.75;4.35847e-78;1.0;2
167.069;44.0;1.46497e-77;1.0;2
168.35;44.25;4.8698e-77;1.0;2
169.63;44.5;1.61206e-76;1.0;2
170.916;44.75;5.34003e-76;1.0;2
172.2;45.0;1.75956e-75;1.0;2
173.484;45.25;5.77487e-75;1.0;2
174.772;45.5;1.8933e-74;1.0;2
176.055;45.75;6.15919e-74;1.0;2
177.339;46.0;1.99584e-73;1.0;2
178.6242;46.25;6.44627e-73;1.0;2
179.907;46.5;2.07035e-72;1.0;2
181.188;46.75;6.60846e-72;1.0;2
182.47;47.0;2.1024e-71;1.0;2
183.751;47.25;6.65602e-71;1.0;2
185.034;47.5;2.10308e-70;1.0;2
186.318;47.75;6.61948e-70;1.0;2
187.6;48.0;2.07207e-69;1.0;2
188.884;48.25;6.47037e-69;1.0;2
190.169;48.5;2.01502e-68;1.0;2
191.455;48.75;6.25237e-68;1.0;2
192.741;49.0;1.93104e-67;1.0;2
194.027;49.25;5.94544e-67;1.0;2
195.314;49.5;1.82238e-66;1.0;2
196.596;49.75;5.54516e-66;1.0;2
197.878;50.0;1.67983e-65;1.0;2
199.164;50.25;5.08371e-65;1.0;2
200.448;50.5;1.52935e-64;1.0;2
201.731;50.75;4.58229e-64;1.0;2
203.018;51.0;1.37052e-63;1.0;2
204.303;51.25;4.07934e-63;1.0;2
205.589;51.5;1.20938e-62;1.0;2
206.875;51.75;3.57147e-62;1.0;2
208.16;52.0;1.049e-61;1.0;2
209.443;52.25;3.06585e-61;1.0;2
210.727;52.5;8.92226e-61;1.0;2
212.011;52.75;2.58743e-60;1.0;2
213.2936;53.0;7.46436e-60;1.0;2
214.5738;53.25;2.1401e-59;1.0;2
215.857;53.5;6.12546e-59;1.0;2
217.1376;53.75;1.74256e-58;1.0;2
218.417;54.0;4.93159e-58;1.0;2
219.696;54.25;1.38983e-57;1.0;2
220.974;54.5;3.89747e-57;1.0;2
222.254;54.75;1.08972e-56;1.0;2
223.532;55.0;3.03236e-56;1.0;2
224.81;55.25;8.3985e-56;1.0;2
226.091;55.5;2.32128e-55;1.0;2
227.368;55.75;6.37663e-55;1.0;2
228.648;56.0;1.74652e-54;1.0;2
229.928;56.25;4.76775e-54;1.0;2
231.206;56.5;1.29448e-53;1.0;2
232.486;56.75;3.50214e-53;1.0;2
233.765;57.0;9.4398e-53;1.0;2
235.045;57.25;2.53361e-52;1.0;2
236.323;57.5;6.76636e-52;1.0;2
237.601;57.75;1.79873e-51;1.0;2
238.878;58.0;4.76052e-51;1.0;2
240.155;58.25;1.2552e-50;1.0;2
241.433;58.5;3.29773e-50;1.0;2
242.71;58.75;8.61967e-50;1.0;2
243.985;59.0;2.24121e-49;1.0;2
245.262;59.25;5.80998e-49;1.0;2
246.539;59.5;1.4999e-48;1.0;2
247.816;59.75;3.85863e-48;1.0;2
249.096;60.0;9.90651e-48;1.0;2
250.374;60.25;2.52933e-47;1.0;2
251.654;60.5;6.44039e-47;1.0;2
252.931;60.75;1.62939e-46;1.0;2
254.205;61.0;4.09854e-46;1.0;2
255.482;61.25;1.02841e-45;1.0;2
256.759;61.5;2.5716e-45;1.0;2
258.036;61.75;6.39901e-45;1.0;2
259.311;62.0;1.5843e-44;1.0;2
260.5913;62.25;3.92247e-44;1.0;2
261.867;62.5;9.63942e-44;1.0;2
263.142;62.75;2.35747e-43;1.0;2
264.4204;63.0;5.75618e-43;1.0;2
265.7;63.25;1.40065e-42;1.0;2
266.978;63.5;3.39162e-42;1.0;2
268.256;63.75;8.18072e-42;1.0;2
269.535;64.0;1.96635e-41;1.0;2
270.812;64.25;4.69882e-41;1.0;2
272.086;64.5;1.11634e-40;1.0;2
273.359;64.75;2.63983e-40;1.0;2
274.632;65.0;6.2149e-40;1.0;2
275.906;65.25;1.45891e-39;1.0;2
277.181;65.5;3.41271e-39;1.0;2
278.456;65.75;7.94749e-39;1.0;2
279.729;66.0;1.8419e-38;1.0;2
281.006;66.25;4.26144e-38;1.0;2
282.284;66.5;9.82812e-38;1.0;2
283.56;66.75;2.2533e-37;1.0;2
284.836;67.0;5.14829e-37;1.0;2
286.111;67.25;1.17058e-36;1.0;2
287.388;67.5;2.65312e-36;1.0;2
288.666;67.75;5.99404e-36;1.0;2
289.94;68.0;1.34567e-35;1.0;2
291.213;68.25;3.00584e-35;1.0;2
292.485;68.5;6.68431e-35;1.0;2
293.757;68.75;1.4803e-34;1.0;2
295.031;69.0;3.26953e-34;1.0;2
296.307;69.25;7.202e-34;1.0;2
297.582;69.5;1.57836e-33;1.0;2
298.8559;69.75;3.4434e-33;1.0;2
300.129;70.0;7.47844e-33;1.0;2
301.402;70.25;1.6173e-32;1.0;2
302.675;70.5;3.48421e-32;1.0;2
303.947;70.75;7.47078e-32;1.0;2
305.218;71.0;1.59444e-31;1.0;2
306.486;71.25;3.38414e-31;1.0;2
307.755;71.5;7.15541e-31;1.0;2
309.028;71.75;1.51031e-30;1.0;2
310.299;72.0;3.1709e-30;1.0;2
311.568;72.25;6.62539e-30;1.0;2
312.838;72.5;1.37931e-29;1.0;2
314.107;72.75;2.85912e-29;1.0;2
315.373;73.0;5.89222e-29;1.0;2
316.642;73.25;1.21139e-28;1.0;2
317.912;73.5;2.48191e-28;1.0;2
319.1809;73.75;5.06154e-28;1.0;2
320.449;74.0;1.02766e-27;1.0;2
321.7193;74.25;2.08051e-27;1.0;2
322.988;74.5;4.19123e-27;1.0;2
324.258;74.75;8.41658e-27;1.0;2
325.526;75.0;1.68169e-26;1.0;2
326.7946;75.25;3.34681e-26;1.0;2
328.063;75.5;6.63428e-26;1.0;2
329.332;75.75;1.31008e-25;1.0;2
330.599;76.0;2.57458e-25;1.0;2
331.868;76.25;5.04229e-25;1.0;2
333.139;76.5;9.85317e-25;1.0;2
334.409;76.75;1.91558e-24;1.0;2
335.672;77.0;3.69708e-24;1.0;2
336.935;77.25;7.10544e-24;1.0;2
338.201;77.5;1.36165e-23;1.0;2
339.467;77.75;2.60069e-23;1.0;2
340.734;78.0;4.94975e-23;1.0;2
342.001;78.25;9.38066e-23;1.0;2
343.267;78.5;1.76987e-22;1.0;2
344.533;78.75;3.32572e-22;1.0;2
345.801;79.0;6.23035e-22;1.0;2
347.068;79.25;1.16216e-21;1.0;2
348.3319;79.5;2.15585e-21;1.0;2
349.596;79.75;3.98412e-21;1.0;2
350.862;80.0;7.33706e-21;1.0;2
352.1271;80.25;1.34561e-20;1.0;2
353.392;80.5;2.45729e-20;1.0;2
354.658;80.75;4.47262e-20;1.0;2
355.923;81.0;8.10514e-20;1.0;2
357.19;81.25;1.46379e-19;1.0;2
358.457;81.5;2.63379e-19;1.0;2
359.7225;81.75;4.71704e-19;1.0;2
360.985;82.0;8.40295e-19;1.0;2
362.2481;82.25;1.49097e-18;1.0;2
363.513;82.5;2.63789e-18;1.0;2
364.776;82.75;4.6437e-18;1.0;2
366.039;83.0;8.14235e-18;1.0;2
367.303;83.25;1.4225e-17;1.0;2
368.565;83.5;2.47309e-17;1.0;2
369.826;83.75;4.28125e-17;1.0;2
371.086;84.0;7.38027e-17;1.0;2
372.3491;84.25;1.26839e-16;1.0;2
373.6113;84.5;2.1708e-16;1.0;2
374.87;84.75;3.69565e-16;1.0;2
376.134;85.0;6.27931e-16;1.0;2
377.3972;85.25;1.06226e-15;1.0;2
378.66;85.5;1.78974e-15;1.0;2
379.921;85.75;3.00114e-15;1.0;2
381.179;86.0;5.00713e-15;1.0;2
382.438;86.25;8.32425e-15;1.0;2
383.7;86.5;1.37962e-14;1.0;2
384.959;86.75;2.27531e-14;1.0;2
386.2178;87.0;3.73808e-14;1.0;2
387.478;87.25;6.12026e-14;1.0;2
388.738;87.5;9.9769e-14;1.0;2
389.998;87.75;1.62025e-13;1.0;2
391.254;88.0;2.61713e-13;1.0;2
392.51;88.25;4.20981e-13;1.0;2
393.773;88.5;6.76328e-13;1.0;2
395.0354;88.75;1.08201e-12;1.0;2
396.297;89.0;1.72377e-12;1.0;2
397.556;89.25;2.73286e-12;1.0;2
398.817;89.5;4.31766e-12;1.0;2
400.079;89.75;6.79724e-12;1.0;2
401.34;90.0;1.0655e-11;1.0;2
402.599;90.25;1.66243e-11;1.0;2
403.858;90.5;2.58429e-11;1.0;2
405.119;90.75;4.00318e-11;1.0;2
406.379;91.0;6.17388e-11;1.0;2
407.638;91.25;9.48229e-11;1.0;2
408.901;91.5;1.45253e-10;1.0;2
410.16;91.75;2.21285e-10;1.0;2
411.418;92.0;3.35719e-10;1.0;2
412.676;92.25;5.07354e-10;1.0;2
413.935;92.5;7.63919e-10;1.0;2
415.192;92.75;1.14474e-09;1.0;2
416.4495;93.0;1.70943e-09;1.0;2
417.706;93.25;2.5416e-09;1.0;2
418.9638;93.5;3.76529e-09;1.0;2
420.221;93.75;5.55574e-09;1.0;2
421.478;94.0;8.16312e-09;1.0;2
422.7334;94.25;1.19433e-08;1.0;2
423.99;94.5;1.741e-08;1.0;2
425.248;94.75;2.52918e-08;1.0;2
426.506;95.0;3.65981e-08;1.0;2
427.762;95.25;5.27183e-08;1.0;2
429.019;95.5;7.56503e-08;1.0;2
430.275;95.75;1.081e-07;1.0;2
431.534;96.0;1.54039e-07;1.0;2
432.795;96.25;2.18706e-07;1.0;2
434.053;96.5;3.09035e-07;1.0;2
435.313;96.75;4.35099e-07;1.0;2
436.573;97.0;6.10399e-07;1.0;2
437.835;97.25;8.53242e-07;1.0;2
439.093;97.5;1.18656e-06;1.0;2
440.3477;97.75;1.64253e-06;1.0;2
441.604;98.0;2.26578e-06;1.0;2
442.859;98.25;3.11149e-06;1.0;2
444.117;98.5;4.26042e-06;1.0;2
445.377;98.75;5.81194e-06;1.0;2
446.638;99.0;7.8998e-06;1.0;2
447.8979;99.25;1.06935e-05;1.0;2
449.159;99.5;1.44214e-05;1.0;2
450.419;99.75;1.93653e-05;1.0;2
451.676;100.0;2.5887e-05;1.0;2
452.933;100.25;3.44664e-05;1.0;2
454.189;100.5;4.56928e-05;1.0;2
455.4418;100.75;6.03004e-05;1.0;2
456.696;101.0;7.92962e-05;1.0;2
457.9502;101.25;0.000103856;1.0;2
459.202;101.5;0.000135425;1.0;2
460.455;101.75;0.000175967;1.0;2
461.713;102.0;0.000227939;1.0;2
462.968;102.25;0.000293947;1.0;2
464.222;102.5;0.000377501;1.0;2
465.4741;102.75;0.000482754;1.0;2
466.727;103.0;0.000615027;1.0;2
467.98;103.25;0.000780442;1.0;2
469.233;103.5;0.000986455;1.0;2
470.486;103.75;0.00124216;1.0;2
471.739;104.0;0.00155783;1.0;2
472.992;104.25;0.00194615;1.0;2
474.243;104.5;0.00242107;1.0;2
475.4947;104.75;0.00300021;1.0;2
476.747;105.0;0.00370376;1.0;2
477.9978;105.25;0.00455358;1.0;2
479.249;105.5;0.00557662;1.0;2
480.501;105.75;0.00680435;1.0;2
481.753;106.0;0.0082691;1.0;2
483.006;106.25;0.010011;1.0;2
484.256;106.5;0.0120695;1.0;2
485.507;106.75;0.0144942;1.0;2
486.76;107.0;0.0173448;1.0;2
488.013;107.25;0.0206729;1.0;2
489.266;107.5;0.0245439;1.0;2
490.52;107.75;0.0290301;1.0;2
491.772;108.0;0.0341937;1.0;2
493.024;108.25;0.0401159;1.0;2
494.278;108.5;0.0468922;1.0;2
495.531;108.75;0.054593;1.0;2
496.782;109.0;0.0632961;1.0;2
498.034;109.25;0.0731151;1.0;2
499.287;109.5;0.0841267;1.0;2
500.541;109.75;0.0964291;1.0;2
501.7957;110.0;0.110105;1.0;2
503.048;110.25;0.125205;1.0;2
504.301;110.5;0.141815;1.0;2
505.554;110.75;0.160004;1.0;2
506.804;111.0;0.179789;1.0;2
508.055;111.25;0.201227;1.0;2
509.307;111.5;0.22438;1.0;2
510.562;111.75;0.249266;1.0;2
511.798;112.0;0.275423;1.0;2
513.034;112.25;0.30317;1.0;2
514.314;112.5;0.333516;1.0;2
515.603;112.75;0.365599;1.0;2
516.891;113.0;0.399117;1.0;2
518.177;113.25;0.433832;1.0;2
519.459;113.5;0.469531;1.0;2
520.74;113.75;0.506033;1.0;2
522.021;114.0;0.543161;1.0;2
523.318;114.25;0.581093;1.0;2
524.658;114.5;0.620323;1.0;2
526.025;114.75;0.66001;1.0;2
527.4373;115.0;0.700245;1.0;2
528.914;115.25;0.740997;1.0;2
530.34;115.5;0.778558;1.0;2
531.691;115.75;0.81209;1.0;2
533;116.0;0.842273;1.0;2
534.277;116.25;0.86922;1.0;2
535.532;116.5;0.892993;1.0;2
536.77;116.75;0.913561;1.0;2
537.996;117.0;0.930881;1.0;2
539.218;117.25;0.944931;1.0;2
540.437;117.5;0.955601;1.0;2
541.654;117.75;0.962806;1.0;2
542.871;118.0;0.966485;1.0;2
544.086;118.25;0.966601;1.0;2
545.2994;118.5;0.963167;1.0;2
546.514;118.75;0.956215;1.0;2
547.731;119.0;0.945803;1.0;2
548.947;119.25;0.932057;1.0;2
550.163;119.5;0.915134;1.0;2
551.381;119.75;0.895173;1.0;2
552.601;120.0;0.872368;1.0;2
553.823;120.25;0.846946;1.0;2
555.046;120.5;0.81918;1.0;2
556.2706;120.75;0.789338;1.0;2
557.497;121.0;0.757688;1.0;2
558.723;121.25;0.724601;1.0;2
559.947;121.5;0.690404;1.0;2
561.172;121.75;0.655352;1.0;2
562.398;122.0;0.619724;1.0;2
563.624;122.25;0.583826;1.0;2
564.8499;122.5;0.547957;1.0;2
566.077;122.75;0.512326;1.0;2
567.305;123.0;0.477211;1.0;2
568.536;123.25;0.442735;1.0;2
569.766;123.5;0.409217;1.0;2
570.995;123.75;0.37683;1.0;2
572.223;124.0;0.345755;1.0;2
573.451;124.25;0.316036;1.0;2
574.685;124.5;0.287652;1.0;2
575.917;124.75;0.260859;1.0;2
577.149;125.0;0.235677;1.0;2
578.389;125.25;0.211967;1.0;2
579.631;125.5;0.189875;1.0;2
580.8682;125.75;0.169511;1.0;2
582.1069;126.0;0.150733;1.0;2
583.346;126.25;0.133519;1.0;2
584.581;126.5;0.117864;1.0;2
585.816;126.75;0.103652;1.0;2
587.052;127.0;0.090793;1.0;2
588.2876;127.25;0.0792357;1.0;2
589.524;127.5;0.0688817;1.0;2
590.7589;127.75;0.0596568;1.0;2
591.998;128.0;0.0514449;1.0;2
593.24;128.25;0.0441842;1.0;2
594.481;128.5;0.0378045;1.0;2
595.723;128.75;0.0322169;1.0;2
596.964;129.0;0.0273512;1.0;2
598.207;129.25;0.0231269;1.0;2
599.451;129.5;0.019478;1.0;2
600.693;129.75;0.0163444;1.0;2
601.936;130.0;0.0136621;1.0;2
603.178;130.25;0.0113759;1.0;2
604.421;130.5;0.00943461;1.0;2
605.666;130.75;0.00779279;1.0;2
606.909;131.0;0.00641426;1.0;2
608.15;131.25;0.00526003;1.0;2
609.393;131.5;0.00429573;1.0;2
610.636;131.75;0.00349504;1.0;2
611.878;132.0;0.00283302;1.0;2
613.123;132.25;0.00228621;1.0;2
614.366;132.5;0.00183866;1.0;2
615.6071;132.75;0.00147341;1.0;2
616.8482;133.0;0.00117622;1.0;2
618.089;133.25;0.000935421;1.0;2
619.3303;133.5;0.000741003;1.0;2
620.572;133.75;0.000584638;1.0;2
621.815;134.0;0.000459444;1.0;2
623.054;134.25;0.000359966;1.0;2
624.294;134.5;0.000280882;1.0;2
625.534;134.75;0.000218304;1.0;2
626.776;135.0;0.000168977;1.0;2
628.015;135.25;0.000130359;1.0;2
629.254;135.5;0.000100191;1.0;2
630.492;135.75;7.67202e-05;1.0;2
631.726;136.0;5.85673e-05;1.0;2
632.962;136.25;4.45345e-05;1.0;2
634.196;136.5;3.37397e-05;1.0;2
635.431;136.75;2.54676e-05;1.0;2
636.6665;137.0;1.91425e-05;1.0;2
637.901;137.25;1.43375e-05;1.0;2
639.138;137.5;1.06933e-05;1.0;2
640.374;137.75;7.94529e-06;1.0;2
641.611;138.0;5.88072e-06;1.0;2
642.848;138.25;4.3352e-06;1.0;2
644.087;138.5;3.18288e-06;1.0;2
645.323;138.75;2.32932e-06;1.0;2
646.558;139.0;1.69844e-06;1.0;2
647.793;139.25;1.23396e-06;1.0;2
649.027;139.5;8.93048e-07;1.0;2
650.261;139.75;6.44027e-07;1.0;2
651.493;140.0;4.62947e-07;1.0;2
652.725;140.25;3.31492e-07;1.0;2
653.958;140.5;2.36442e-07;1.0;2
655.188;140.75;1.68131e-07;1.0;2
656.4166;141.0;1.19135e-07;1.0;2
657.646;141.25;8.40895e-08;1.0;2
658.874;141.5;5.91517e-08;1.0;2
660.101;141.75;4.14628e-08;1.0;2
661.33;142.0;2.89413e-08;1.0;2
662.559;142.25;2.01252e-08;1.0;2
663.787;142.5;1.39478e-08;1.0;2
665.017;142.75;9.62186e-09;1.0;2
666.247;143.0;6.61256e-09;1.0;2
667.4744;143.25;4.53198e-09;1.0;2
668.703;143.5;3.09294e-09;1.0;2
669.931;143.75;2.10321e-09;1.0;2
671.154;144.0;1.42704e-09;1.0;2
672.376;144.25;9.65102e-10;1.0;2
673.597;144.5;6.50288e-10;1.0;2
674.8184;144.75;4.36622e-10;1.0;2
676.039;145.0;2.92118e-10;1.0;2
677.258;145.25;1.94794e-10;1.0;2
678.477;145.5;1.29439e-10;1.0;2
679.697;145.75;8.56519e-11;1.0;2
680.915;146.0;5.64983e-11;1.0;2
682.131;146.25;3.71637e-11;1.0;2
683.346;146.5;2.43643e-11;1.0;2
684.56;146.75;1.5921e-11;1.0;2
685.775;147.0;1.03584e-11;1.0;2
686.986;147.25;6.72719e-12;1.0;2
688.196;147.5;4.35257e-12;1.0;2
689.407;147.75;2.80608e-12;1.0;2
690.618;148.0;1.80203e-12;1.0;2
691.831;148.25;1.15221e-12;1.0;2
693.043;148.5;7.34284e-13;1.0;2
694.256;148.75;4.65964e-13;1.0;2
695.473;149.0;2.94195e-13;1.0;2
696.694;149.25;1.84804e-13;1.0;2
697.916;149.5;1.15608e-13;1.0;2
699.142;149.75;7.19431e-14;1.0;2
700.371;150.0;4.45463e-14;1.0;2
701.601;150.25;2.74669e-14;1.0;2
702.831;150.5;1.68743e-14;1.0;2
704.06;150.75;1.03274e-14;1.0;2
705.291;151.0;6.29532e-15;1.0;2
706.526;151.25;3.81575e-15;1.0;2
707.761;151.5;2.30347e-15;1.0;2
708.999;151.75;1.38388e-15;1.0;2
710.236;152.0;8.28765e-16;1.0;2
711.471;152.25;4.94672e-16;1.0;2
712.7091;152.5;2.93834e-16;1.0;2
713.945;152.75;1.74011e-16;1.0;2
715.181;153.0;1.02674e-16;1.0;2
716.416;153.25;6.03536e-17;1.0;2
717.649;153.5;3.53738e-17;1.0;2
718.885;153.75;2.06306e-17;1.0;2
720.121;154.0;1.19892e-17;1.0;2
721.3571;154.25;6.93849e-18;1.0;2
722.592;154.5;4.00232e-18;1.0;2
723.827;154.75;2.30038e-18;1.0;2
725.061;155.0;1.31708e-18;1.0;2
726.296;155.25;7.51279e-19;1.0;2
727.532;155.5;4.26614e-19;1.0;2
728.769;155.75;2.41181e-19;1.0;2
730.006;156.0;1.35872e-19;1.0;2
731.242;156.25;7.62828e-20;1.0;2
732.478;156.5;4.26588e-20;1.0;2
733.712;156.75;2.37867e-20;1.0;2
734.95;157.0;1.31916e-20;1.0;2
736.187;157.25;7.2919e-21;1.0;2
737.423;157.5;4.01548e-21;1.0;2
738.661;157.75;2.20091e-21;1.0;2
739.898;158.0;1.20251e-21;1.0;2
741.135;158.25;6.54473e-22;1.0;2
742.371;158.5;3.5507e-22;1.0;2
743.607;158.75;1.91886e-22;1.0;2
744.842;159.0;1.03351e-22;1.0;2
746.0747;159.25;5.55135e-23;1.0;2
747.308;159.5;2.97057e-23;1.0;2
748.542;159.75;1.58215e-23;1.0;2
749.774;160.0;8.40623e-24;1.0;2
751.007;160.25;4.44759e-24;1.0;2
752.241;160.5;2.34252e-24;1.0;2
753.474;160.75;1.23005e-24;1.0;2
754.709;161.0;6.42519e-25;1.0;2
755.944;161.25;3.34325e-25;1.0;2
757.179;161.5;1.73431e-25;1.0;2
758.412;161.75;8.96507e-26;1.0;2
759.647;162.0;4.61463e-26;1.0;2
760.88;162.25;2.36698e-26;1.0;2
762.116;162.5;1.20818e-26;1.0;2
763.351;162.75;6.14664e-27;1.0;2
764.587;163.0;3.1133e-27;1.0;2
765.823;163.25;1.57084e-27;1.0;2
767.059;163.5;7.89886e-28;1.0;2
768.295;163.75;3.95467e-28;1.0;2
769.532;164.0;1.97186e-28;1.0;2
770.77;164.25;9.78972e-29;1.0;2
772.008;164.5;4.83941e-29;1.0;2
773.247;164.75;2.38319e-29;1.0;2
774.484;165.0;1.16957e-29;1.0;2
775.722;165.25;5.71756e-30;1.0;2
776.962;165.5;2.78121e-30;1.0;2
778.1998;165.75;1.34959e-30;1.0;2
779.436;166.0;6.52887e-31;1.0;2
780.671;166.25;3.14827e-31;1.0;2
781.905;166.5;1.51374e-31;1.0;2
783.14;166.75;7.24591e-32;1.0;2
784.3755;167.0;3.45331e-32;1.0;2
785.609;167.25;1.64166e-32;1.0;2
786.842;167.5;7.77996e-33;1.0;2
788.077;167.75;3.6675e-33;1.0;2
789.312;168.0;1.72143e-33;1.0;2
790.548;168.25;8.05201e-34;1.0;2
791.782;168.5;3.75346e-34;1.0;2
793.017;168.75;1.74246e-34;1.0;2
794.255;169.0;8.04378e-35;1.0;2
795.493;169.25;3.6998e-35;1.0;2
796.729;169.5;1.69647e-35;1.0;2
797.966;169.75;7.74826e-36;1.0;2
799.2;170.0;3.53147e-36;1.0;2
800.435;170.25;1.60227e-36;1.0;2
801.672;170.5;7.23754e-37;1.0;2
802.905;170.75;3.26309e-37;1.0;2
804.141;171.0;1.46241e-37;1.0;2
805.379;171.25;6.52532e-38;1.0;2
806.613;171.5;2.90659e-38;1.0;2
807.846;171.75;1.29119e-38;1.0;2
809.08;172.0;5.70709e-39;1.0;2
810.312;172.25;2.51742e-39;1.0;2
811.544;172.5;1.10605e-39;1.0;2
812.779;172.75;4.83163e-40;1.0;2
814.012;173.0;2.10427e-40;1.0;2
815.245;173.25;9.13844e-41;1.0;2
816.475;173.5;3.95998e-41;1.0;2
817.709;173.75;1.7052e-41;1.0;2
818.944;174.0;7.30873e-42;1.0;2
820.177;174.25;3.12426e-42;1.0;2
821.41;174.5;1.33094e-42;1.0;2
822.643;174.75;5.64679e-43;1.0;2
823.877;175.0;2.38542e-43;1.0;2
825.111;175.25;1.00362e-43;1.0;2
826.346;175.5;4.20503e-44;1.0;2
827.58;175.75;1.75617e-44;1.0;2
828.815;176.0;7.29938e-45;1.0;2
830.051;176.25;3.02261e-45;1.0;2
831.283;176.5;1.24969e-45;1.0;2
832.518;176.75;5.13528e-46;1.0;2
833.752;177.0;2.10462e-46;1.0;2
834.987;177.25;8.58219e-47;1.0;2
836.222;177.5;3.48852e-47;1.0;2
837.455;177.75;1.41416e-47;1.0;2
838.691;178.0;5.70022e-48;1.0;2
839.927;178.25;2.2879e-48;1.0;2
841.162;178.5;9.15373e-49;1.0;2
842.396;178.75;3.65227e-49;1.0;2
843.63;179.0;1.45205e-49;1.0;2
844.866;179.25;5.74211e-50;1.0;2
846.101;179.5;2.2624e-50;1.0;2
847.336;179.75;8.88919e-51;1.0;2
848.569;180.0;3.48058e-51;1.0;2
849.801;180.25;1.35979e-51;1.0;2
851.034;180.5;5.28679e-52;1.0;2
852.2652;180.75;2.05108e-52;1.0;2
853.5;181.0;7.90604e-53;1.0;2
854.7352;181.25;3.03314e-53;1.0;2
855.969;181.5;1.16055e-53;1.0;2
857.203;181.75;4.42573e-54;1.0;2
858.438;182.0;1.67958e-54;1.0;2
859.672;182.25;6.35354e-55;1.0;2
860.904;182.5;2.3974e-55;1.0;2
862.139;182.75;8.99965e-56;1.0;2
863.372;183.0;3.36764e-56;1.0;2
864.607;183.25;1.25382e-56;1.0;2
865.842;183.5;4.64999e-57;1.0;2
867.076;183.75;1.71957e-57;1.0;2
868.312;184.0;6.3245e-58;1.0;2
869.548;184.25;2.31772e-58;1.0;2
870.783;184.5;8.46697e-59;1.0;2
872.0177;184.75;3.08133e-59;1.0;2
873.2523;185.0;1.11742e-59;1.0;2
874.487;185.25;4.03767e-60;1.0;2
875.721;185.5;1.45402e-60;1.0;2
876.955;185.75;5.21375e-61;1.0;2
878.1884;186.0;1.86396e-61;1.0;2
879.421;186.25;6.64123e-62;1.0;2
880.653;186.5;2.35987e-62;1.0;2
881.887;186.75;8.3403e-63;1.0;2
883.121;187.0;2.93358e-63;1.0;2
884.353;187.25;1.03024e-63;1.0;2
885.587;187.5;3.60051e-64;1.0;2
886.822;187.75;1.25207e-64;1.0;2
888.055;188.0;4.34235e-65;1.0;2
889.289;188.25;1.50013e-65;1.0;2
890.521;188.5;5.16697e-66;1.0;2
891.756;188.75;1.76977e-66;1.0;2
892.986;189.0;6.06163e-67;1.0;2
894.216;189.25;2.06908e-67;1.0;2
895.45;189.5;7.0103e-68;1.0;2
896.682;189.75;2.37101e-68;1.0;2
897.912;190.0;7.99885e-69;1.0;2
899.145;190.25;2.68321e-69;1.0;2
900.3779;190.5;8.9623e-70;1.0;2
901.61;190.75;2.98366e-70;1.0;2
902.845;191.0;9.87487e-71;1.0;2
904.0798;191.25;3.25656e-71;1.0;2
905.315;191.5;1.06891e-71;1.0;2
906.55;191.75;3.49666e-72;1.0;2