File: src/data/kinetics/multipeaks/q10.txt
#EXPORTTYPE:DATA SINGLE
#FTYPE:ANSI
#IDENTITY:005922
#DECIMAL:POINT
#SEPARATOR:SEMICOLON
#MTYPE:DSC
#SAMPLE:2
#SAMPLE MASS /mg:7.28
#REFERENCE MASS /mg:0
#TYPE OF CRUCIBLE:DSC/TG pan Al2O3
#SAMPLE CRUCIBLE MASS /mg:0
#REFERENCE CRUCIBLE MASS /mg:0
#DSC RANGE /�V:5000
#TG RANGE /mg:5000
#TAU-R:---
#CORR. CODE:020
#EXO:+1
#RANGE:35�C/00:00/35�C/10,0(K/min)/920�C/
#SEGMENT:S1-2/2
#SEG. 1:35�C/00:15/35�C
#SEG. 2:35�C/10,0(K/min)/920�C

##Temp./�C;Time/min;DSC/(uV/mg);Sensit./(uV/mW);Segment
 33.97600;  0.00000; 3.9824e-003;1.00000;1
 33.98564;  0.25000; 3.1440e-003;1.00000;1
 34.00776;  0.50000; 3.2488e-003;1.00000;1
 34.03218;  0.75000; 3.1440e-003;1.00000;1
 34.05276;  1.00000; 3.3536e-003;1.00000;1
 34.06923;  1.25000; 3.4584e-003;1.00000;1
 34.08182;  1.50000; 2.7248e-003;1.00000;1
 34.09324;  1.75000; 3.4584e-003;1.00000;1
 34.10847;  2.00000; 2.9344e-003;1.00000;1
 34.12312;  2.25000; 2.8296e-003;1.00000;1
 34.13618;  2.50000; 3.1440e-003;1.00000;1
 34.14771;  2.75000; 2.9344e-003;1.00000;1
 34.15324;  3.00000; 2.9344e-003;1.00000;1
 34.15806;  3.25000; 3.1440e-003;1.00000;1
 34.16100;  3.50000; 1.3624e-003;1.00000;1
 34.16376;  3.75000; 3.2488e-003;1.00000;1
 34.16953;  4.00000; 2.4104e-003;1.00000;1
 34.17700;  4.25000; 3.4584e-003;1.00000;1
 34.18312;  4.50000; 2.2008e-003;1.00000;1
 34.18659;  4.75000; 2.6200e-003;1.00000;1
 34.18865;  5.00000; 1.5720e-003;1.00000;1
 34.19218;  5.25000; 1.9912e-003;1.00000;1
 34.19294;  5.50000; 2.7248e-003;1.00000;1
 34.19318;  5.75000; 1.0480e-003;1.00000;1
 34.19524;  6.00000; 2.3056e-003;1.00000;1
 34.19906;  6.25000; 1.9912e-003;1.00000;1
 34.20065;  6.50000; 2.3056e-003;1.00000;1
 34.19976;  6.75000; 2.0960e-003;1.00000;1
 34.20253;  7.00000; 1.8864e-003;1.00000;1
 34.20388;  7.25000; 1.4672e-003;1.00000;1
 34.20600;  7.50000; 1.6768e-003;1.00000;1
 34.20453;  7.75000; 1.5720e-003;1.00000;1
 34.20118;  8.00000; 1.8864e-003;1.00000;1
 34.20200;  8.25000; 1.3624e-003;1.00000;1
 34.20176;  8.50000; 2.7248e-003;1.00000;1
 34.20118;  8.75000; 2.2008e-003;1.00000;1
 34.20347;  9.00000; 2.4104e-003;1.00000;1
 34.20265;  9.25000; 1.7816e-003;1.00000;1
 34.20318;  9.50000; 2.2008e-003;1.00000;1
 34.20324;  9.75000; 1.0480e-003;1.00000;1
 34.20500; 10.00000; 1.0480e-003;1.00000;1
 34.20876; 10.25000; 9.4319e-004;1.00000;1
 34.20871; 10.50000; 1.6768e-003;1.00000;1
 34.20641; 10.75000; 1.9912e-003;1.00000;1
 34.20712; 11.00000; 1.6768e-003;1.00000;1
 34.20765; 11.25000; 8.3840e-004;1.00000;1
 34.20771; 11.50000; 1.2576e-003;1.00000;1
 34.20853; 11.75000; 1.0480e-003;1.00000;1
 34.20588; 12.00000; 6.2880e-004;1.00000;1
 34.20988; 12.25000; 9.4319e-004;1.00000;1
 34.20829; 12.50000; 5.2400e-004;1.00000;1
 34.20865; 12.75000; 9.4319e-004;1.00000;1
 34.20776; 13.00000; 6.2880e-004;1.00000;1
 34.20865; 13.25000; 6.2880e-004;1.00000;1
 34.21177; 13.50000; 1.0480e-004;1.00000;1
 34.21424; 13.75000; 7.3360e-004;1.00000;1
 34.21224; 14.00000; 1.7816e-003;1.00000;1
 34.21053; 14.25000; 1.2576e-003;1.00000;1
 34.20835; 14.50000; 1.1528e-003;1.00000;1
 34.20900; 14.75000; 5.2400e-004;1.00000;1
 34.22108; 15.00000; 9.0777e-004;1.00000;2
 34.21049; 15.25000; 7.3085e-004;1.00000;2
 34.25831; 15.50000; 1.7510e-003;1.00000;2
 34.44920; 15.75000;-1.5784e-004;1.00000;2
 34.84544; 16.00000;-1.9157e-003;1.00000;2
 35.46710; 16.25000;-5.7110e-003;1.00000;2
 36.30742; 16.50000;-1.0309e-002;1.00000;2
 37.34251; 16.75000;-1.4405e-002;1.00000;2
 38.55148; 17.00000;-1.9099e-002;1.00000;2
 39.90639; 17.25000;-2.2413e-002;1.00000;2
 41.38813; 17.50000;-2.6860e-002;1.00000;2
 42.97527; 17.75000;-3.0173e-002;1.00000;2
 44.65488; 18.00000;-3.3768e-002;1.00000;2
 46.42406; 18.25000;-3.5969e-002;1.00000;2
 48.26587; 18.50000;-3.9822e-002;1.00000;2
 50.19397; 18.75000;-4.1229e-002;1.00000;2
 52.17875; 19.00000;-4.4350e-002;1.00000;2
 54.22524; 19.25000;-4.9346e-002;1.00000;2
 56.32557; 19.50000;-5.3274e-002;1.00000;2
 58.47110; 19.75000;-4.8192e-002;1.00000;2
 60.66140; 20.00000;-5.3299e-002;1.00000;2
 62.89915; 20.25000;-5.4681e-002;1.00000;2
 65.16764; 20.50000;-5.4207e-002;1.00000;2
 67.46730; 20.75000;-5.7002e-002;1.00000;2
 69.79150; 21.00000;-5.9284e-002;1.00000;2
 72.14683; 21.25000;-5.6590e-002;1.00000;2
 74.51336; 21.50000;-5.9477e-002;1.00000;2
 76.90669; 21.75000;-5.8606e-002;1.00000;2
 79.31675; 22.00000;-5.6649e-002;1.00000;2
 81.75552; 22.25000;-5.6294e-002;1.00000;2
 84.20921; 22.50000;-4.9302e-002;1.00000;2
 86.67746; 22.75000;-5.1985e-002;1.00000;2
 89.17272; 23.00000;-5.1370e-002;1.00000;2
 91.68109; 23.25000;-5.3422e-002;1.00000;2
 94.20287; 23.50000;-5.3055e-002;1.00000;2
 96.73827; 23.75000;-5.4069e-002;1.00000;2
 99.28467; 24.00000;-5.4206e-002;1.00000;2
101.844; 24.25000;-5.3303e-002;1.00000;2
104.41; 24.50000;-5.1705e-002;1.00000;2
106.979; 24.75000;-4.8749e-002;1.00000;2
109.553; 25.00000;-5.2811e-002;1.00000;2
112.126; 25.25000;-5.9556e-002;1.00000;2
114.701; 25.50000;-5.1845e-002;1.00000;2
117.277; 25.75000;-4.9204e-002;1.00000;2
119.853; 26.00000;-5.1632e-002;1.00000;2
122.435; 26.25000;-5.8770e-002;1.00000;2
125.02; 26.50000;-6.5079e-002;1.00000;2
127.605; 26.75000;-5.7885e-002;1.00000;2
130.201; 27.00000;-4.9705e-002;1.00000;2
132.809; 27.25000;-5.4515e-002;1.00000;2
135.416; 27.50000;-6.3718e-002;1.00000;2
138.029; 27.75000;-6.2601e-002;1.00000;2
140.645; 28.00000;-6.2142e-002;1.00000;2
143.268; 28.25000;-6.6905e-002;1.00000;2
145.893; 28.50000;-6.5566e-002;1.00000;2
148.522; 28.75000;-6.5812e-002;1.00000;2
151.148; 29.00000;-6.1063e-002;1.00000;2
153.785; 29.25000;-5.6387e-002;1.00000;2
156.42; 29.50000;-5.5139e-002;1.00000;2
159.044; 29.75000;-5.3800e-002;1.00000;2
161.667; 30.00000;-5.8567e-002;1.00000;2
164.299; 30.25000;-5.9470e-002;1.00000;2
166.927; 30.50000;-5.6746e-002;1.00000;2
169.547; 30.75000;-5.0663e-002;1.00000;2
172.176; 31.00000;-5.0015e-002;1.00000;2
174.8; 31.25000;-4.8856e-002;1.00000;2
177.423; 31.50000;-4.7961e-002;1.00000;2
180.05; 31.75000;-5.0863e-002;1.00000;2
182.675; 32.00000;-4.4933e-002;1.00000;2
185.301; 32.25000;-5.3174e-002;1.00000;2
187.928; 32.50000;-5.1711e-002;1.00000;2
190.559; 32.75000;-4.7237e-002;1.00000;2
193.188; 33.00000;-4.3942e-002;1.00000;2
195.817; 33.25000;-3.7322e-002;1.00000;2
198.45; 33.50000;-3.2518e-002;1.00000;2
201.073; 33.75000;-3.5667e-002;1.00000;2
203.7; 34.00000;-2.5994e-002;1.00000;2
206.33; 34.25000;-3.1239e-002;1.00000;2
208.954; 34.50000;-3.0950e-002;1.00000;2
211.578; 34.75000;-2.5808e-002;1.00000;2
214.203; 35.00000;-2.3258e-002;1.00000;2
216.827; 35.25000;-2.0453e-002;1.00000;2
219.45; 35.50000;-1.8628e-002;1.00000;2
222.074; 35.75000;-1.7080e-002;1.00000;2
224.693; 36.00000;-1.6130e-002;1.00000;2
227.314; 36.25000;-1.2354e-002;1.00000;2
229.938; 36.50000;-9.8402e-003;1.00000;2
232.555; 36.75000;-1.0964e-002;1.00000;2
235.177; 37.00000;-9.5459e-003;1.00000;2
237.791; 37.25000;-6.7107e-003;1.00000;2
240.409; 37.50000;-5.8141e-003;1.00000;2
243.019; 37.75000;-2.7489e-003;1.00000;2
245.63; 38.00000;-2.5932e-003;1.00000;2
248.239; 38.25000;-2.6660e-005;1.00000;2
250.851; 38.50000; 1.0651e-003;1.00000;2
253.459; 38.75000; 2.8740e-003;1.00000;2
256.066; 39.00000; 5.4831e-003;1.00000;2
258.677; 39.25000; 5.4734e-003;1.00000;2
261.282; 39.50000; 7.1687e-003;1.00000;2
263.892; 39.75000; 1.0508e-002;1.00000;2
266.493; 40.00000; 1.3226e-002;1.00000;2
269.1; 40.25000; 1.5912e-002;1.00000;2
271.702; 40.50000; 1.5525e-002;1.00000;2
274.306; 40.75000; 1.9007e-002;1.00000;2
276.905; 41.00000; 2.0453e-002;1.00000;2
279.505; 41.25000; 2.2634e-002;1.00000;2
282.104; 41.50000; 2.5876e-002;1.00000;2
284.701; 41.75000; 2.6548e-002;1.00000;2
287.296; 42.00000; 2.8739e-002;1.00000;2
289.889; 42.25000; 3.1506e-002;1.00000;2
292.484; 42.50000; 3.2683e-002;1.00000;2
295.076; 42.75000; 3.4501e-002;1.00000;2
297.662; 43.00000; 3.6585e-002;1.00000;2
300.255; 43.25000; 3.9737e-002;1.00000;2
302.844; 43.50000; 4.1420e-002;1.00000;2
305.438; 43.75000; 4.1845e-002;1.00000;2
308.025; 44.00000; 4.4932e-002;1.00000;2
310.612; 44.25000; 4.6973e-002;1.00000;2
313.198; 44.50000; 4.8864e-002;1.00000;2
315.785; 44.75000; 5.0293e-002;1.00000;2
318.367; 45.00000; 5.2416e-002;1.00000;2
320.95; 45.25000; 5.4409e-002;1.00000;2
323.53; 45.50000; 5.6164e-002;1.00000;2
326.108; 45.75000; 5.7862e-002;1.00000;2
328.684; 46.00000; 6.0785e-002;1.00000;2
331.258; 46.25000; 6.2160e-002;1.00000;2
333.832; 46.50000; 6.3200e-002;1.00000;2
336.403; 46.75000; 6.5438e-002;1.00000;2
338.979; 47.00000; 6.8826e-002;1.00000;2
341.55; 47.25000; 7.1231e-002;1.00000;2
344.124; 47.50000; 7.4351e-002;1.00000;2
346.695; 47.75000; 7.6277e-002;1.00000;2
349.266; 48.00000; 7.8084e-002;1.00000;2
351.833; 48.25000; 8.0598e-002;1.00000;2
354.404; 48.50000; 8.2861e-002;1.00000;2
356.966; 48.75000; 8.4749e-002;1.00000;2
359.53; 49.00000; 8.6250e-002;1.00000;2
362.093; 49.25000; 8.8890e-002;1.00000;2
364.655; 49.50000; 9.0944e-002;1.00000;2
367.218; 49.75000; 9.4215e-002;1.00000;2
369.777; 50.00000; 9.6012e-002;1.00000;2
372.336; 50.25000; 9.8086e-002;1.00000;2
374.894; 50.50000;     0.10229;1.00000;2
377.455; 50.75000;     0.10369;1.00000;2
380.012; 51.00000;     0.10704;1.00000;2
382.573; 51.25000;     0.11106;1.00000;2
385.131; 51.50000;     0.11387;1.00000;2
387.685; 51.75000;     0.11694;1.00000;2
390.241; 52.00000;     0.11884;1.00000;2
392.799; 52.25000;     0.12080;1.00000;2
395.351; 52.50000;     0.12382;1.00000;2
397.901; 52.75000;     0.12667;1.00000;2
400.449; 53.00000;     0.12980;1.00000;2
402.999; 53.25000;     0.13353;1.00000;2
405.55; 53.50000;     0.13592;1.00000;2
408.097; 53.75000;     0.13724;1.00000;2
410.638; 54.00000;     0.14190;1.00000;2
413.188; 54.25000;     0.14371;1.00000;2
415.732; 54.50000;     0.14725;1.00000;2
418.277; 54.75000;     0.14992;1.00000;2
420.819; 55.00000;     0.15442;1.00000;2
423.368; 55.25000;     0.15692;1.00000;2
425.911; 55.50000;     0.16042;1.00000;2
428.453; 55.75000;     0.16443;1.00000;2
430.995; 56.00000;     0.16628;1.00000;2
433.535; 56.25000;     0.17033;1.00000;2
436.074; 56.50000;     0.17462;1.00000;2
438.611; 56.75000;     0.17615;1.00000;2
441.145; 57.00000;     0.17993;1.00000;2
443.681; 57.25000;     0.18337;1.00000;2
446.217; 57.50000;     0.18700;1.00000;2
448.75; 57.75000;     0.19047;1.00000;2
451.286; 58.00000;     0.19344;1.00000;2
453.818; 58.25000;     0.19530;1.00000;2
456.353; 58.50000;     0.20025;1.00000;2
458.884; 58.75000;     0.20463;1.00000;2
461.418; 59.00000;     0.20797;1.00000;2
463.949; 59.25000;     0.21284;1.00000;2
466.477; 59.50000;     0.21565;1.00000;2
469.003; 59.75000;     0.21933;1.00000;2
471.529; 60.00000;     0.22365;1.00000;2
474.059; 60.25000;     0.22683;1.00000;2
476.582; 60.50000;     0.23068;1.00000;2
479.109; 60.75000;     0.23481;1.00000;2
481.636; 61.00000;     0.23706;1.00000;2
484.159; 61.25000;     0.24069;1.00000;2
486.683; 61.50000;     0.24474;1.00000;2
489.207; 61.75000;     0.24773;1.00000;2
491.728; 62.00000;     0.25154;1.00000;2
494.248; 62.25000;     0.25490;1.00000;2
496.768; 62.50000;     0.27908;1.00000;2
499.294; 62.75000;     0.31812;1.00000;2
501.821; 63.00000;     0.35412;1.00000;2
504.348; 63.25000;     0.39725;1.00000;2
506.882; 63.50000;     0.44248;1.00000;2
509.414; 63.75000;     0.48424;1.00000;2
511.946; 64.00000;     0.53362;1.00000;2
514.481; 64.25000;     0.58873;1.00000;2
517.02; 64.50000;     0.64848;1.00000;2
519.558; 64.75000;     0.70732;1.00000;2
522.098; 65.00000;     0.76641;1.00000;2
524.637; 65.25000;     0.82655;1.00000;2
527.178; 65.50000;     0.88420;1.00000;2
529.719; 65.75000;     0.93540;1.00000;2
532.264; 66.00000;     0.98946;1.00000;2
534.819; 66.25000;     1.04245;1.00000;2
537.468; 66.50000;     1.01910;1.00000;2
540.301; 66.75000;     0.90335;1.00000;2
543.182; 67.00000;     0.97763;1.00000;2
545.883; 67.25000;     1.07431;1.00000;2
548.501; 67.50000;     1.14078;1.00000;2
551.053; 67.75000;     1.22285;1.00000;2
553.563; 68.00000;     1.30805;1.00000;2
556.044; 68.25000;     1.38599;1.00000;2
558.516; 68.50000;     1.45408;1.00000;2
560.979; 68.75000;     1.51372;1.00000;2
563.435; 69.00000;     1.57136;1.00000;2
565.888; 69.25000;     1.60800;1.00000;2
568.34; 69.50000;     1.63525;1.00000;2
570.794; 69.75000;     1.65614;1.00000;2
573.249; 70.00000;     1.67431;1.00000;2
575.705; 70.25000;     1.68777;1.00000;2
578.162; 70.50000;     1.69525;1.00000;2
580.618; 70.75000;     1.70292;1.00000;2
583.077; 71.00000;     1.71106;1.00000;2
585.54; 71.25000;     1.71296;1.00000;2
588.002; 71.50000;     1.74614;1.00000;2
590.47; 71.75000;     1.74912;1.00000;2
592.939; 72.00000;     1.74550;1.00000;2
595.411; 72.25000;     1.74765;1.00000;2
597.889; 72.50000;     1.75313;1.00000;2
600.366; 72.75000;     1.75851;1.00000;2
602.842; 73.00000;     1.76506;1.00000;2
605.318; 73.25000;     1.77344;1.00000;2
607.795; 73.50000;     1.78062;1.00000;2
610.269; 73.75000;     1.78800;1.00000;2
612.752; 74.00000;     1.79798;1.00000;2
615.234; 74.25000;     1.80940;1.00000;2
617.716; 74.50000;     1.82266;1.00000;2
620.198; 74.75000;     1.83505;1.00000;2
622.685; 75.00000;     1.84991;1.00000;2
625.172; 75.25000;     1.86296;1.00000;2
627.656; 75.50000;     1.87749;1.00000;2
630.145; 75.75000;     1.88919;1.00000;2
632.631; 76.00000;     1.90221;1.00000;2
635.12; 76.25000;     1.91247;1.00000;2
637.608; 76.50000;     1.92159;1.00000;2
640.096; 76.75000;     1.93031;1.00000;2
642.586; 77.00000;     1.93715;1.00000;2
645.073; 77.25000;     1.94334;1.00000;2
647.562; 77.50000;     1.94708;1.00000;2
650.051; 77.75000;     1.94753;1.00000;2
652.538; 78.00000;     1.94805;1.00000;2
655.024; 78.25000;     1.94858;1.00000;2
657.509; 78.50000;     1.94906;1.00000;2
659.994; 78.75000;     1.94978;1.00000;2
662.477; 79.00000;     1.94917;1.00000;2
664.953; 79.25000;     1.95052;1.00000;2
667.435; 79.50000;     1.94832;1.00000;2
669.913; 79.75000;     1.94916;1.00000;2
672.393; 80.00000;     1.94615;1.00000;2
674.873; 80.25000;     1.94393;1.00000;2
677.351; 80.50000;     1.93828;1.00000;2
679.83; 80.75000;     1.93166;1.00000;2
682.307; 81.00000;     1.92867;1.00000;2
684.783; 81.25000;     1.92015;1.00000;2
687.259; 81.50000;     1.91015;1.00000;2
689.732; 81.75000;     1.90076;1.00000;2
692.207; 82.00000;     1.89138;1.00000;2
694.679; 82.25000;     1.88102;1.00000;2
697.15; 82.50000;     1.86979;1.00000;2
699.622; 82.75000;     1.85877;1.00000;2
702.093; 83.00000;     1.84578;1.00000;2
704.56; 83.25000;     1.83137;1.00000;2
707.031; 83.50000;     1.81473;1.00000;2
709.502; 83.75000;     1.79748;1.00000;2
711.974; 84.00000;     1.77488;1.00000;2
714.442; 84.25000;     1.74581;1.00000;2
716.905; 84.50000;     1.71063;1.00000;2
719.368; 84.75000;     1.66810;1.00000;2
721.823; 85.00000;     1.61335;1.00000;2
724.29; 85.25000;     1.54989;1.00000;2
726.768; 85.50000;     1.47404;1.00000;2
729.251; 85.75000;     1.38244;1.00000;2
731.732; 86.00000;     1.27557;1.00000;2
734.207; 86.25000;     1.16071;1.00000;2
736.677; 86.50000;     1.03756;1.00000;2
739.14; 86.75000;     0.91103;1.00000;2
741.597; 87.00000;     0.78340;1.00000;2
744.053; 87.25000;     0.65605;1.00000;2
746.505; 87.50000;     0.53419;1.00000;2
748.954; 87.75000;     0.41862;1.00000;2
751.4; 88.00000;     0.31744;1.00000;2
753.854; 88.25000;     0.23164;1.00000;2
756.305; 88.50000;     0.16156;1.00000;2
758.766; 88.75000;     0.11240;1.00000;2
761.228; 89.00000; 8.1098e-002;1.00000;2
763.697; 89.25000; 5.9961e-002;1.00000;2
766.169; 89.50000; 4.8147e-002;1.00000;2
768.649; 89.75000; 3.9250e-002;1.00000;2
771.13; 90.00000; 3.6720e-002;1.00000;2
773.611; 90.25000; 3.3735e-002;1.00000;2
776.092; 90.50000; 3.2237e-002;1.00000;2
778.574; 90.75000; 2.9854e-002;1.00000;2
781.059; 91.00000; 2.8201e-002;1.00000;2
783.539; 91.25000; 2.6593e-002;1.00000;2
786.022; 91.50000; 2.4461e-002;1.00000;2
788.504; 91.75000; 2.2272e-002;1.00000;2
790.986; 92.00000; 1.9986e-002;1.00000;2
793.464; 92.25000; 1.9683e-002;1.00000;2
795.94; 92.50000; 1.9127e-002;1.00000;2
798.417; 92.75000; 1.7886e-002;1.00000;2
800.887; 93.00000; 1.8606e-002;1.00000;2
803.361; 93.25000; 1.5361e-002;1.00000;2
805.838; 93.50000; 1.4235e-002;1.00000;2
808.311; 93.75000; 1.2996e-002;1.00000;2
810.787; 94.00000; 1.1496e-002;1.00000;2
813.258; 94.25000; 1.0694e-002;1.00000;2
815.733; 94.50000; 6.5157e-003;1.00000;2
818.21; 94.75000; 3.5673e-003;1.00000;2
820.689; 95.00000; 1.7550e-003;1.00000;2
823.164; 95.25000;-3.8412e-004;1.00000;2
825.643; 95.50000; 3.6615e-004;1.00000;2
828.121; 95.75000;-1.1546e-003;1.00000;2
830.599; 96.00000;-8.1988e-004;1.00000;2
833.079; 96.25000;-1.0500e-003;1.00000;2
835.559; 96.50000;-1.1025e-003;1.00000;2
838.036; 96.75000;-2.3943e-003;1.00000;2
840.512; 97.00000;-3.1437e-003;1.00000;2
842.984; 97.25000;-3.1138e-003;1.00000;2
845.458; 97.50000;-3.4349e-003;1.00000;2
847.935; 97.75000;-5.4783e-003;1.00000;2
850.411; 98.00000;-6.5668e-003;1.00000;2
852.884; 98.25000;-8.6882e-003;1.00000;2
855.36; 98.50000;-9.6310e-003;1.00000;2
857.833; 98.75000;-1.0725e-002;1.00000;2
860.305; 99.00000;-1.1345e-002;1.00000;2
862.777; 99.25000;-9.4887e-003;1.00000;2
865.247; 99.50000;-1.0747e-002;1.00000;2
867.722; 99.75000;-1.3864e-002;1.00000;2
870.193;100;-1.2812e-002;1.00000;2
872.666;100.25;-1.4196e-002;1.00000;2
875.142;100.5;-1.4167e-002;1.00000;2
877.622;100.75;-1.5617e-002;1.00000;2
880.098;101;-1.6684e-002;1.00000;2
882.575;101.25;-1.5857e-002;1.00000;2
885.052;101.5;-1.5954e-002;1.00000;2
887.528;101.75;-1.6819e-002;1.00000;2
890.004;102;-1.7303e-002;1.00000;2
892.48;102.25;-1.9598e-002;1.00000;2
894.956;102.5;-1.7920e-002;1.00000;2
897.43;102.75;-2.0544e-002;1.00000;2
899.902;103;-1.9245e-002;1.00000;2
902.373;103.25;-1.7815e-002;1.00000;2