File: src/data/kinetics/multipeaks/q5.txt
#EXPORTTYPE:DATA SINGLE
#FTYPE:ANSI
#IDENTITY:005920
#DECIMAL:POINT
#SEPARATOR:SEMICOLON
#MTYPE:DSC
#SENSITIVITY:SENSZERO.EXX
#SAMPLE:1
#SAMPLE MASS /mg:9.99
#MATERIAL:
#REFERENCE:
#REFERENCE MASS /mg:0
#TYPE OF CRUCIBLE:DSC/TG pan Al2O3
#SAMPLE CRUCIBLE MASS /mg:0
#REFERENCE CRUCIBLE MASS /mg:0
#DSC RANGE /V:5000
#TG RANGE /mg:5000
#TAU-R:---
#CORR. CODE:020
#EXO:+1
#RANGE:35C/00:00/35C/5,0(K/min)/920C/
#SEGMENT:S1-2/2
#SEG. 1:35C/00:15/35C
#SEG. 2:35C/5,0(K/min)/920C

##Temp./C;Time/min;DSC/(uV/mg);Sensit./(uV/mW);Segment
 34.17900;  0.00000;-1.4510e-003;1.00000;1
 34.17636;  0.25000;-1.2219e-003;1.00000;1
 34.17971;  0.50000;-1.5274e-003;1.00000;1
 34.17888;  0.75000;-1.1456e-003;1.00000;1
 34.17688;  1.00000;-1.3747e-003;1.00000;1
 34.17253;  1.25000;-1.2983e-003;1.00000;1
 34.17059;  1.50000;-1.2983e-003;1.00000;1
 34.16876;  1.75000;-9.1644e-004;1.00000;1
 34.16682;  2.00000;-6.8733e-004;1.00000;1
 34.16441;  2.25000;-2.1384e-003;1.00000;1
 34.16576;  2.50000;-1.6801e-003;1.00000;1
 34.17024;  2.75000;-1.6038e-003;1.00000;1
 34.16623;  3.00000;-1.4510e-003;1.00000;1
 34.16288;  3.25000;-1.6801e-003;1.00000;1
 34.16018;  3.50000;-9.1644e-004;1.00000;1
 34.15800;  3.75000;-1.1456e-003;1.00000;1
 34.16165;  4.00000;-1.6038e-003;1.00000;1
 34.16312;  4.25000;-1.0692e-003;1.00000;1
 34.16582;  4.50000;-1.2983e-003;1.00000;1
 34.16759;  4.75000;-1.8329e-003;1.00000;1
 34.16271;  5.00000;-2.0620e-003;1.00000;1
 34.15965;  5.25000;-1.7565e-003;1.00000;1
 34.15641;  5.50000;-2.4439e-003;1.00000;1
 34.15535;  5.75000;-1.9856e-003;1.00000;1
 34.15588;  6.00000;-6.1096e-004;1.00000;1
 34.15641;  6.25000;-1.2983e-003;1.00000;1
 34.15753;  6.50000;-8.4007e-004;1.00000;1
 34.15565;  6.75000;-1.2983e-003;1.00000;1
 34.15471;  7.00000;-2.1384e-003;1.00000;1
 34.15547;  7.25000;-1.4510e-003;1.00000;1
 34.15894;  7.50000;-1.8329e-003;1.00000;1
 34.15988;  7.75000;-1.3747e-003;1.00000;1
 34.15700;  8.00000;-1.6801e-003;1.00000;1
 34.15382;  8.25000;-1.4510e-003;1.00000;1
 34.15247;  8.50000;-1.9093e-003;1.00000;1
 34.15324;  8.75000;-1.5274e-003;1.00000;1
 34.15406;  9.00000;-1.6038e-003;1.00000;1
 34.15082;  9.25000;-1.7565e-003;1.00000;1
 34.15171;  9.50000;-1.2983e-003;1.00000;1
 34.15165;  9.75000;-2.3675e-003;1.00000;1
 34.15165; 10.00000;-1.4510e-003;1.00000;1
 34.15094; 10.25000;-1.2983e-003;1.00000;1
 34.14553; 10.50000;-1.2983e-003;1.00000;1
 34.14282; 10.75000;-1.6801e-003;1.00000;1
 34.14235; 11.00000;-1.6801e-003;1.00000;1
 34.13906; 11.25000;-2.0620e-003;1.00000;1
 34.13618; 11.50000;-1.5274e-003;1.00000;1
 34.13253; 11.75000;-1.3747e-003;1.00000;1
 34.12859; 12.00000;-1.2983e-003;1.00000;1
 34.12518; 12.25000;-1.4510e-003;1.00000;1
 34.12371; 12.50000;-1.9093e-003;1.00000;1
 34.12300; 12.75000;-1.7565e-003;1.00000;1
 34.12447; 13.00000;-2.1384e-003;1.00000;1
 34.12429; 13.25000;-1.0692e-003;1.00000;1
 34.12471; 13.50000;-1.2219e-003;1.00000;1
 34.12024; 13.75000;-1.9093e-003;1.00000;1
 34.11500; 14.00000;-1.5274e-003;1.00000;1
 34.10647; 14.25000;-1.8329e-003;1.00000;1
 34.10235; 14.50000;-1.6038e-003;1.00000;1
 34.10264; 14.75000;-1.2983e-003;1.00000;1
 34.11549; 15.00000;-1.8819e-003;1.00000;2
 34.10516; 15.25000;-1.6845e-003;1.00000;2
 34.13672; 15.50000;-1.6708e-003;1.00000;2
 34.23371; 15.75000;-2.5749e-003;1.00000;2
 34.42622; 16.00000;-4.6939e-003;1.00000;2
 34.72104; 16.25000;-6.0171e-003;1.00000;2
 35.12375; 16.50000;-8.9817e-003;1.00000;2
 35.61708; 16.75000;-1.1186e-002;1.00000;2
 36.19250; 17.00000;-1.4563e-002;1.00000;2
 36.83655; 17.25000;-1.6637e-002;1.00000;2
 37.54164; 17.50000;-1.8963e-002;1.00000;2
 38.29774; 17.75000;-2.0783e-002;1.00000;2
 39.09878; 18.00000;-2.2553e-002;1.00000;2
 39.94421; 18.25000;-2.3899e-002;1.00000;2
 40.82469; 18.50000;-2.5590e-002;1.00000;2
 41.74540; 18.75000;-2.7168e-002;1.00000;2
 42.69183; 19.00000;-2.8700e-002;1.00000;2
 43.66753; 19.25000;-3.0042e-002;1.00000;2
 44.66731; 19.50000;-3.1491e-002;1.00000;2
 45.69280; 19.75000;-3.2617e-002;1.00000;2
 46.74168; 20.00000;-3.3235e-002;1.00000;2
 47.80570; 20.25000;-3.4580e-002;1.00000;2
 48.88834; 20.50000;-3.5701e-002;1.00000;2
 49.98967; 20.75000;-3.7179e-002;1.00000;2
 51.10446; 21.00000;-3.9461e-002;1.00000;2
 52.23305; 21.25000;-4.0564e-002;1.00000;2
 53.37523; 21.50000;-4.1104e-002;1.00000;2
 54.52530; 21.75000;-4.2261e-002;1.00000;2
 55.68474; 22.00000;-4.2180e-002;1.00000;2
 56.85935; 22.25000;-4.4563e-002;1.00000;2
 58.04364; 22.50000;-4.7194e-002;1.00000;2
 59.23476; 22.75000;-4.8497e-002;1.00000;2
 60.43665; 23.00000;-4.8979e-002;1.00000;2
 61.64896; 23.25000;-4.0101e-002;1.00000;2
 62.86358; 23.50000;-4.0105e-002;1.00000;2
 64.08470; 23.75000;-3.9882e-002;1.00000;2
 65.30787; 24.00000;-3.9380e-002;1.00000;2
 66.53528; 24.25000;-3.8062e-002;1.00000;2
 67.76738; 24.50000;-3.8816e-002;1.00000;2
 69.00398; 24.75000;-3.8560e-002;1.00000;2
 70.24448; 25.00000;-3.9173e-002;1.00000;2
 71.48621; 25.25000;-4.1016e-002;1.00000;2
 72.72937; 25.50000;-4.1364e-002;1.00000;2
 73.97395; 25.75000;-4.2301e-002;1.00000;2
 75.22398; 26.00000;-4.1701e-002;1.00000;2
 76.46965; 26.25000;-4.1475e-002;1.00000;2
 77.71669; 26.50000;-4.2599e-002;1.00000;2
 78.96561; 26.75000;-4.0770e-002;1.00000;2
 80.21691; 27.00000;-4.3098e-002;1.00000;2
 81.47146; 27.25000;-4.4683e-002;1.00000;2
 82.72618; 27.50000;-4.1534e-002;1.00000;2
 83.98380; 27.75000;-4.1112e-002;1.00000;2
 85.24469; 28.00000;-4.1489e-002;1.00000;2
 86.50762; 28.25000;-4.0208e-002;1.00000;2
 87.77336; 28.50000;-3.8184e-002;1.00000;2
 89.03755; 28.75000;-3.6630e-002;1.00000;2
 90.30329; 29.00000;-3.4878e-002;1.00000;2
 91.56980; 29.25000;-3.5280e-002;1.00000;2
 92.84121; 29.50000;-3.6866e-002;1.00000;2
 94.11325; 29.75000;-3.6673e-002;1.00000;2
 95.38379; 30.00000;-3.7171e-002;1.00000;2
 96.65528; 30.25000;-3.8400e-002;1.00000;2
 97.92917; 30.50000;-3.9664e-002;1.00000;2
 99.20502; 30.75000;-3.9077e-002;1.00000;2
100.482; 31.00000;-4.0039e-002;1.00000;2
101.761; 31.25000;-3.9950e-002;1.00000;2
103.04; 31.50000;-3.9283e-002;1.00000;2
104.318; 31.75000;-3.8157e-002;1.00000;2
105.595; 32.00000;-3.7457e-002;1.00000;2
106.873; 32.25000;-3.5620e-002;1.00000;2
108.15; 32.50000;-3.4645e-002;1.00000;2
109.424; 32.75000;-3.4759e-002;1.00000;2
110.698; 33.00000;-3.4143e-002;1.00000;2
111.973; 33.25000;-3.4688e-002;1.00000;2
113.248; 33.50000;-3.5386e-002;1.00000;2
114.524; 33.75000;-3.7119e-002;1.00000;2
115.8; 34.00000;-3.7691e-002;1.00000;2
117.071; 34.25000;-3.7946e-002;1.00000;2
118.344; 34.50000;-3.7821e-002;1.00000;2
119.615; 34.75000;-3.5985e-002;1.00000;2
120.886; 35.00000;-3.6809e-002;1.00000;2
122.16; 35.25000;-3.5836e-002;1.00000;2
123.434; 35.50000;-3.5570e-002;1.00000;2
124.708; 35.75000;-3.7218e-002;1.00000;2
125.984; 36.00000;-3.6516e-002;1.00000;2
127.259; 36.25000;-3.1204e-002;1.00000;2
128.536; 36.50000;-2.9689e-002;1.00000;2
129.815; 36.75000;-2.9935e-002;1.00000;2
131.096; 37.00000;-3.6576e-002;1.00000;2
132.375; 37.25000;-3.6980e-002;1.00000;2
133.656; 37.50000;-3.7431e-002;1.00000;2
134.935; 37.75000;-3.6987e-002;1.00000;2
136.213; 38.00000;-3.5805e-002;1.00000;2
137.494; 38.25000;-3.4586e-002;1.00000;2
138.773; 38.50000;-3.4164e-002;1.00000;2
140.055; 38.75000;-3.1014e-002;1.00000;2
141.336; 39.00000;-3.2652e-002;1.00000;2
142.619; 39.25000;-3.9510e-002;1.00000;2
143.902; 39.50000;-4.0268e-002;1.00000;2
145.189; 39.75000;-3.7580e-002;1.00000;2
146.477; 40.00000;-3.6885e-002;1.00000;2
147.764; 40.25000;-3.6630e-002;1.00000;2
149.052; 40.50000;-3.6850e-002;1.00000;2
150.341; 40.75000;-3.6563e-002;1.00000;2
151.63; 41.00000;-3.6631e-002;1.00000;2
152.914; 41.25000;-3.5924e-002;1.00000;2
154.201; 41.50000;-3.5936e-002;1.00000;2
155.491; 41.75000;-3.8522e-002;1.00000;2
156.779; 42.00000;-3.6746e-002;1.00000;2
158.066; 42.25000;-3.6517e-002;1.00000;2
159.352; 42.50000;-3.6056e-002;1.00000;2
160.638; 42.75000;-3.5082e-002;1.00000;2
161.923; 43.00000;-3.5427e-002;1.00000;2
163.209; 43.25000;-3.3825e-002;1.00000;2
164.493; 43.50000;-3.4833e-002;1.00000;2
165.782; 43.75000;-3.6553e-002;1.00000;2
167.069; 44.00000;-3.5359e-002;1.00000;2
168.35; 44.25000;-3.2753e-002;1.00000;2
169.63; 44.50000;-3.2221e-002;1.00000;2
170.916; 44.75000;-3.0700e-002;1.00000;2
172.2; 45.00000;-2.9214e-002;1.00000;2
173.484; 45.25000;-3.0608e-002;1.00000;2
174.772; 45.50000;-3.0586e-002;1.00000;2
176.055; 45.75000;-2.8881e-002;1.00000;2
177.339; 46.00000;-2.6277e-002;1.00000;2
178.624; 46.25000;-2.5789e-002;1.00000;2
179.907; 46.50000;-2.6925e-002;1.00000;2
181.188; 46.75000;-3.7287e-002;1.00000;2
182.47; 47.00000;-3.6901e-002;1.00000;2
183.751; 47.25000;-3.4691e-002;1.00000;2
185.034; 47.50000;-3.1434e-002;1.00000;2
186.318; 47.75000;-2.6561e-002;1.00000;2
187.6; 48.00000;-2.5448e-002;1.00000;2
188.884; 48.25000;-2.3639e-002;1.00000;2
190.169; 48.50000;-2.4732e-002;1.00000;2
191.455; 48.75000;-2.8121e-002;1.00000;2
192.741; 49.00000;-2.6282e-002;1.00000;2
194.027; 49.25000;-2.5955e-002;1.00000;2
195.314; 49.50000;-2.6574e-002;1.00000;2
196.596; 49.75000;-2.6995e-002;1.00000;2
197.878; 50.00000;-2.9004e-002;1.00000;2
199.164; 50.25000;-2.4817e-002;1.00000;2
200.448; 50.50000;-2.5663e-002;1.00000;2
201.731; 50.75000;-3.1069e-002;1.00000;2
203.018; 51.00000;-3.0022e-002;1.00000;2
204.303; 51.25000;-2.6811e-002;1.00000;2
205.589; 51.50000;-2.6282e-002;1.00000;2
206.875; 51.75000;-2.6412e-002;1.00000;2
208.16; 52.00000;-2.6369e-002;1.00000;2
209.443; 52.25000;-2.6475e-002;1.00000;2
210.727; 52.50000;-2.6799e-002;1.00000;2
212.011; 52.75000;-2.6744e-002;1.00000;2
213.294; 53.00000;-2.6312e-002;1.00000;2
214.574; 53.25000;-2.6927e-002;1.00000;2
215.857; 53.50000;-2.5661e-002;1.00000;2
217.138; 53.75000;-2.5077e-002;1.00000;2
218.417; 54.00000;-2.3800e-002;1.00000;2
219.696; 54.25000;-2.3385e-002;1.00000;2
220.974; 54.50000;-2.3602e-002;1.00000;2
222.254; 54.75000;-2.3259e-002;1.00000;2
223.532; 55.00000;-2.3208e-002;1.00000;2
224.81; 55.25000;-2.2395e-002;1.00000;2
226.091; 55.50000;-2.2782e-002;1.00000;2
227.368; 55.75000;-2.2738e-002;1.00000;2
228.648; 56.00000;-2.1974e-002;1.00000;2
229.928; 56.25000;-2.1334e-002;1.00000;2
231.206; 56.50000;-2.0895e-002;1.00000;2
232.486; 56.75000;-2.0966e-002;1.00000;2
233.765; 57.00000;-2.0759e-002;1.00000;2
235.045; 57.25000;-2.1235e-002;1.00000;2
236.323; 57.50000;-2.0491e-002;1.00000;2
237.601; 57.75000;-1.9685e-002;1.00000;2
238.878; 58.00000;-1.9527e-002;1.00000;2
240.155; 58.25000;-1.9299e-002;1.00000;2
241.433; 58.50000;-1.8000e-002;1.00000;2
242.71; 58.75000;-1.8020e-002;1.00000;2
243.985; 59.00000;-1.7378e-002;1.00000;2
245.262; 59.25000;-1.7121e-002;1.00000;2
246.539; 59.50000;-1.6968e-002;1.00000;2
247.816; 59.75000;-1.5952e-002;1.00000;2
249.096; 60.00000;-1.5824e-002;1.00000;2
250.374; 60.25000;-1.5964e-002;1.00000;2
251.654; 60.50000;-1.4507e-002;1.00000;2
252.931; 60.75000;-1.4045e-002;1.00000;2
254.205; 61.00000;-1.3357e-002;1.00000;2
255.482; 61.25000;-1.3118e-002;1.00000;2
256.759; 61.50000;-1.2698e-002;1.00000;2
258.036; 61.75000;-1.2025e-002;1.00000;2
259.311; 62.00000;-1.2128e-002;1.00000;2
260.591; 62.25000;-1.2682e-002;1.00000;2
261.867; 62.50000;-1.1698e-002;1.00000;2
263.142; 62.75000;-1.1079e-002;1.00000;2
264.42; 63.00000;-1.0403e-002;1.00000;2
265.7; 63.25000;-1.0405e-002;1.00000;2
266.978; 63.50000;-8.9981e-003;1.00000;2
268.256; 63.75000;-9.6277e-003;1.00000;2
269.535; 64.00000;-8.1255e-003;1.00000;2
270.812; 64.25000;-8.0249e-003;1.00000;2
272.086; 64.50000;-7.6377e-003;1.00000;2
273.359; 64.75000;-7.4108e-003;1.00000;2
274.632; 65.00000;-7.1381e-003;1.00000;2
275.906; 65.25000;-7.1834e-003;1.00000;2
277.181; 65.50000;-6.8136e-003;1.00000;2
278.456; 65.75000;-6.0991e-003;1.00000;2
279.729; 66.00000;-5.1825e-003;1.00000;2
281.006; 66.25000;-4.5035e-003;1.00000;2
282.284; 66.50000;-4.2997e-003;1.00000;2
283.56; 66.75000;-3.0031e-003;1.00000;2
284.836; 67.00000;-2.2279e-003;1.00000;2
286.111; 67.25000;-2.3550e-003;1.00000;2
287.388; 67.50000;-2.0759e-003;1.00000;2
288.666; 67.75000;-1.8555e-003;1.00000;2
289.94; 68.00000;-1.2224e-003;1.00000;2
291.213; 68.25000;-1.0711e-003;1.00000;2
292.485; 68.50000;-6.0755e-004;1.00000;2
293.757; 68.75000;-4.5049e-004;1.00000;2
295.031; 69.00000;-4.1845e-004;1.00000;2
296.307; 69.25000; 1.5028e-003;1.00000;2
297.582; 69.50000; 1.3041e-003;1.00000;2
298.856; 69.75000; 1.1491e-003;1.00000;2
300.129; 70.00000; 1.8941e-003;1.00000;2
301.402; 70.25000; 2.3739e-003;1.00000;2
302.675; 70.50000; 2.5761e-003;1.00000;2
303.947; 70.75000; 3.1047e-003;1.00000;2
305.218; 71.00000; 3.9979e-003;1.00000;2
306.486; 71.25000; 3.1528e-003;1.00000;2
307.755; 71.50000; 3.4322e-003;1.00000;2
309.028; 71.75000; 3.9809e-003;1.00000;2
310.299; 72.00000; 4.1490e-003;1.00000;2
311.568; 72.25000; 4.3746e-003;1.00000;2
312.838; 72.50000; 5.0298e-003;1.00000;2
314.107; 72.75000; 6.4906e-003;1.00000;2
315.373; 73.00000; 6.7889e-003;1.00000;2
316.642; 73.25000; 7.1567e-003;1.00000;2
317.912; 73.50000; 7.2102e-003;1.00000;2
319.181; 73.75000; 7.8680e-003;1.00000;2
320.449; 74.00000; 8.4435e-003;1.00000;2
321.719; 74.25000; 8.6967e-003;1.00000;2
322.988; 74.50000; 1.0103e-002;1.00000;2
324.258; 74.75000; 1.0582e-002;1.00000;2
325.526; 75.00000; 1.0854e-002;1.00000;2
326.795; 75.25000; 1.0914e-002;1.00000;2
328.063; 75.50000; 1.2303e-002;1.00000;2
329.332; 75.75000; 1.2459e-002;1.00000;2
330.599; 76.00000; 1.3596e-002;1.00000;2
331.868; 76.25000; 1.2892e-002;1.00000;2
333.139; 76.50000; 1.4259e-002;1.00000;2
334.409; 76.75000; 1.5021e-002;1.00000;2
335.672; 77.00000; 1.5225e-002;1.00000;2
336.935; 77.25000; 1.5420e-002;1.00000;2
338.201; 77.50000; 1.6739e-002;1.00000;2
339.467; 77.75000; 1.6891e-002;1.00000;2
340.734; 78.00000; 1.7366e-002;1.00000;2
342.001; 78.25000; 1.7795e-002;1.00000;2
343.267; 78.50000; 1.8767e-002;1.00000;2
344.533; 78.75000; 1.9409e-002;1.00000;2
345.801; 79.00000; 1.9706e-002;1.00000;2
347.068; 79.25000; 2.0091e-002;1.00000;2
348.332; 79.50000; 2.1083e-002;1.00000;2
349.596; 79.75000; 2.2474e-002;1.00000;2
350.862; 80.00000; 2.3072e-002;1.00000;2
352.127; 80.25000; 2.3993e-002;1.00000;2
353.392; 80.50000; 2.4391e-002;1.00000;2
354.658; 80.75000; 2.5706e-002;1.00000;2
355.923; 81.00000; 2.6209e-002;1.00000;2
357.19; 81.25000; 2.7051e-002;1.00000;2
358.457; 81.50000; 2.7966e-002;1.00000;2
359.723; 81.75000; 2.9209e-002;1.00000;2
360.985; 82.00000; 2.9429e-002;1.00000;2
362.248; 82.25000; 3.0190e-002;1.00000;2
363.513; 82.50000; 3.0643e-002;1.00000;2
364.776; 82.75000; 3.1601e-002;1.00000;2
366.039; 83.00000; 3.2743e-002;1.00000;2
367.303; 83.25000; 3.2406e-002;1.00000;2
368.565; 83.50000; 3.4333e-002;1.00000;2
369.826; 83.75000; 3.5495e-002;1.00000;2
371.086; 84.00000; 3.6114e-002;1.00000;2
372.349; 84.25000; 3.7060e-002;1.00000;2
373.611; 84.50000; 3.8278e-002;1.00000;2
374.87; 84.75000; 3.9270e-002;1.00000;2
376.134; 85.00000; 3.8910e-002;1.00000;2
377.397; 85.25000; 4.0593e-002;1.00000;2
378.66; 85.50000; 4.1444e-002;1.00000;2
379.921; 85.75000; 4.2462e-002;1.00000;2
381.179; 86.00000; 4.2748e-002;1.00000;2
382.438; 86.25000; 4.4075e-002;1.00000;2
383.7; 86.50000; 4.4822e-002;1.00000;2
384.959; 86.75000; 4.6562e-002;1.00000;2
386.218; 87.00000; 4.7498e-002;1.00000;2
387.478; 87.25000; 4.8560e-002;1.00000;2
388.738; 87.50000; 4.9332e-002;1.00000;2
389.998; 87.75000; 5.0387e-002;1.00000;2
391.254; 88.00000; 5.1616e-002;1.00000;2
392.51; 88.25000; 5.2424e-002;1.00000;2
393.773; 88.50000; 5.3535e-002;1.00000;2
395.035; 88.75000; 5.4532e-002;1.00000;2
396.297; 89.00000; 5.5629e-002;1.00000;2
397.556; 89.25000; 5.6737e-002;1.00000;2
398.817; 89.50000; 5.8057e-002;1.00000;2
400.079; 89.75000; 5.8843e-002;1.00000;2
401.34; 90.00000; 6.0287e-002;1.00000;2
402.599; 90.25000; 6.1043e-002;1.00000;2
403.858; 90.50000; 6.2765e-002;1.00000;2
405.119; 90.75000; 6.3344e-002;1.00000;2
406.379; 91.00000; 6.3942e-002;1.00000;2
407.638; 91.25000; 6.5838e-002;1.00000;2
408.901; 91.50000; 6.7072e-002;1.00000;2
410.16; 91.75000; 6.8330e-002;1.00000;2
411.418; 92.00000; 6.9161e-002;1.00000;2
412.676; 92.25000; 7.0320e-002;1.00000;2
413.935; 92.50000; 7.0255e-002;1.00000;2
415.192; 92.75000; 7.2275e-002;1.00000;2
416.45; 93.00000; 7.3042e-002;1.00000;2
417.706; 93.25000; 7.4896e-002;1.00000;2
418.964; 93.50000; 7.6239e-002;1.00000;2
420.221; 93.75000; 7.6896e-002;1.00000;2
421.478; 94.00000; 7.7454e-002;1.00000;2
422.733; 94.25000; 7.8210e-002;1.00000;2
423.99; 94.50000; 7.9501e-002;1.00000;2
425.248; 94.75000; 8.0042e-002;1.00000;2
426.506; 95.00000; 8.1513e-002;1.00000;2
427.762; 95.25000; 8.3943e-002;1.00000;2
429.019; 95.50000; 8.5313e-002;1.00000;2
430.275; 95.75000; 8.5905e-002;1.00000;2
431.534; 96.00000; 8.7233e-002;1.00000;2
432.795; 96.25000; 8.9017e-002;1.00000;2
434.053; 96.50000; 8.9674e-002;1.00000;2
435.313; 96.75000; 9.1704e-002;1.00000;2
436.573; 97.00000; 9.3413e-002;1.00000;2
437.835; 97.25000; 9.5273e-002;1.00000;2
439.093; 97.50000; 9.4406e-002;1.00000;2
440.348; 97.75000; 9.5698e-002;1.00000;2
441.604; 98.00000; 9.7099e-002;1.00000;2
442.859; 98.25000; 9.8065e-002;1.00000;2
444.117; 98.50000;     0.10047;1.00000;2
445.377; 98.75000;     0.10143;1.00000;2
446.638; 99.00000;     0.10287;1.00000;2
447.898; 99.25000;     0.10356;1.00000;2
449.159; 99.50000;     0.10556;1.00000;2
450.419; 99.75000;     0.10631;1.00000;2
451.676;100;     0.10776;1.00000;2
452.933;100.25;     0.10924;1.00000;2
454.189;100.5;     0.11006;1.00000;2
455.442;100.75;     0.11241;1.00000;2
456.696;101;     0.11286;1.00000;2
457.95;101.25;     0.11448;1.00000;2
459.202;101.5;     0.11604;1.00000;2
460.455;101.75;     0.11708;1.00000;2
461.713;102;     0.11903;1.00000;2
462.968;102.25;     0.12037;1.00000;2
464.222;102.5;     0.12190;1.00000;2
465.474;102.75;     0.12329;1.00000;2
466.727;103;     0.12418;1.00000;2
467.98;103.25;     0.12533;1.00000;2
469.233;103.5;     0.12599;1.00000;2
470.486;103.75;     0.12753;1.00000;2
471.739;104;     0.12903;1.00000;2
472.992;104.25;     0.13016;1.00000;2
474.243;104.5;     0.13135;1.00000;2
475.495;104.75;     0.13173;1.00000;2
476.747;105;     0.13310;1.00000;2
477.998;105.25;     0.13422;1.00000;2
479.249;105.5;     0.13526;1.00000;2
480.501;105.75;     0.13711;1.00000;2
481.753;106;     0.13832;1.00000;2
483.006;106.25;     0.13944;1.00000;2
484.256;106.5;     0.14048;1.00000;2
485.507;106.75;     0.14153;1.00000;2
486.76;107;     0.14303;1.00000;2
488.013;107.25;     0.14386;1.00000;2
489.266;107.5;     0.14618;1.00000;2
490.52;107.75;     0.14610;1.00000;2
491.772;108;     0.14745;1.00000;2
493.024;108.25;     0.14846;1.00000;2
494.278;108.5;     0.14947;1.00000;2
495.531;108.75;     0.15003;1.00000;2
496.782;109;     0.15178;1.00000;2
498.034;109.25;     0.15169;1.00000;2
499.287;109.5;     0.15284;1.00000;2
500.541;109.75;     0.15412;1.00000;2
501.796;110;     0.15741;1.00000;2
503.048;110.25;     0.15959;1.00000;2
504.301;110.5;     0.16102;1.00000;2
505.554;110.75;     0.16269;1.00000;2
506.804;111;     0.16361;1.00000;2
508.055;111.25;     0.16590;1.00000;2
509.307;111.5;     0.16816;1.00000;2
510.562;111.75;     0.17091;1.00000;2
511.798;112;     0.17396;1.00000;2
513.034;112.25;     0.33893;1.00000;2
514.314;112.5;     0.47923;1.00000;2
515.603;112.75;     0.56642;1.00000;2
516.891;113;     0.63386;1.00000;2
518.177;113.25;     0.68896;1.00000;2
519.459;113.5;     0.73654;1.00000;2
520.74;113.75;     0.77893;1.00000;2
522.021;114;     0.80831;1.00000;2
523.318;114.25;     0.82651;1.00000;2
524.658;114.5;     0.80126;1.00000;2
526.025;114.75;     0.77894;1.00000;2
527.437;115;     0.73988;1.00000;2
528.914;115.25;     0.82503;1.00000;2
530.34;115.5;     0.94151;1.00000;2
531.691;115.75;     1.00892;1.00000;2
533;116;     1.06824;1.00000;2
534.277;116.25;     1.10704;1.00000;2
535.532;116.5;     1.13837;1.00000;2
536.77;116.75;     1.16368;1.00000;2
537.996;117;     1.18442;1.00000;2
539.218;117.25;     1.20254;1.00000;2
540.437;117.5;     1.21841;1.00000;2
541.654;117.75;     1.23086;1.00000;2
542.871;118;     1.24167;1.00000;2
544.086;118.25;     1.25038;1.00000;2
545.299;118.5;     1.25729;1.00000;2
546.514;118.75;     1.26473;1.00000;2
547.731;119;     1.27011;1.00000;2
548.947;119.25;     1.27284;1.00000;2
550.163;119.5;     1.27481;1.00000;2
551.381;119.75;     1.27526;1.00000;2
552.601;120;     1.27566;1.00000;2
553.823;120.25;     1.27794;1.00000;2
555.046;120.5;     1.27679;1.00000;2
556.271;120.75;     1.27541;1.00000;2
557.497;121;     1.27322;1.00000;2
558.723;121.25;     1.27069;1.00000;2
559.947;121.5;     1.27217;1.00000;2
561.172;121.75;     1.27109;1.00000;2
562.398;122;     1.26847;1.00000;2
563.624;122.25;     1.26415;1.00000;2
564.85;122.5;     1.26107;1.00000;2
566.077;122.75;     1.26001;1.00000;2
567.305;123;     1.26035;1.00000;2
568.536;123.25;     1.25599;1.00000;2
569.766;123.5;     1.25656;1.00000;2
570.995;123.75;     1.25465;1.00000;2
572.223;124;     1.25332;1.00000;2
573.451;124.25;     1.25377;1.00000;2
574.685;124.5;     1.25376;1.00000;2
575.917;124.75;     1.25246;1.00000;2
577.149;125;     1.25341;1.00000;2
578.389;125.25;     1.25942;1.00000;2
579.631;125.5;     1.26049;1.00000;2
580.868;125.75;     1.26003;1.00000;2
582.107;126;     1.26017;1.00000;2
583.346;126.25;     1.26315;1.00000;2
584.581;126.5;     1.26408;1.00000;2
585.816;126.75;     1.26721;1.00000;2
587.052;127;     1.29128;1.00000;2
588.288;127.25;     1.29052;1.00000;2
589.524;127.5;     1.28978;1.00000;2
590.759;127.75;     1.29321;1.00000;2
591.998;128;     1.29643;1.00000;2
593.24;128.25;     1.30046;1.00000;2
594.481;128.5;     1.30339;1.00000;2
595.723;128.75;     1.30815;1.00000;2
596.964;129;     1.31019;1.00000;2
598.207;129.25;     1.31975;1.00000;2
599.451;129.5;     1.32126;1.00000;2
600.693;129.75;     1.32686;1.00000;2
601.936;130;     1.32937;1.00000;2
603.178;130.25;     1.33385;1.00000;2
604.421;130.5;     1.33726;1.00000;2
605.666;130.75;     1.34587;1.00000;2
606.909;131;     1.34761;1.00000;2
608.15;131.25;     1.35233;1.00000;2
609.393;131.5;     1.35615;1.00000;2
610.636;131.75;     1.36008;1.00000;2
611.878;132;     1.36310;1.00000;2
613.123;132.25;     1.36711;1.00000;2
614.366;132.5;     1.37069;1.00000;2
615.607;132.75;     1.37261;1.00000;2
616.848;133;     1.37589;1.00000;2
618.089;133.25;     1.37832;1.00000;2
619.33;133.5;     1.37917;1.00000;2
620.572;133.75;     1.38315;1.00000;2
621.815;134;     1.38668;1.00000;2
623.054;134.25;     1.38550;1.00000;2
624.294;134.5;     1.38428;1.00000;2
625.534;134.75;     1.38718;1.00000;2
626.776;135;     1.38872;1.00000;2
628.015;135.25;     1.38687;1.00000;2
629.254;135.5;     1.38760;1.00000;2
630.492;135.75;     1.38717;1.00000;2
631.726;136;     1.38494;1.00000;2
632.962;136.25;     1.38099;1.00000;2
634.196;136.5;     1.38686;1.00000;2
635.431;136.75;     1.38012;1.00000;2
636.667;137;     1.37900;1.00000;2
637.901;137.25;     1.37577;1.00000;2
639.138;137.5;     1.37206;1.00000;2
640.374;137.75;     1.36634;1.00000;2
641.611;138;     1.36339;1.00000;2
642.848;138.25;     1.35840;1.00000;2
644.087;138.5;     1.35167;1.00000;2
645.323;138.75;     1.34551;1.00000;2
646.558;139;     1.33775;1.00000;2
647.793;139.25;     1.32901;1.00000;2
649.027;139.5;     1.32302;1.00000;2
650.261;139.75;     1.31509;1.00000;2
651.493;140;     1.30678;1.00000;2
652.725;140.25;     1.29465;1.00000;2
653.958;140.5;     1.28487;1.00000;2
655.188;140.75;     1.27410;1.00000;2
656.417;141;     1.26260;1.00000;2
657.646;141.25;     1.25073;1.00000;2
658.874;141.5;     1.23977;1.00000;2
660.101;141.75;     1.22548;1.00000;2
661.33;142;     1.20982;1.00000;2
662.559;142.25;     1.19549;1.00000;2
663.787;142.5;     1.17974;1.00000;2
665.017;142.75;     1.16206;1.00000;2
666.247;143;     1.14492;1.00000;2
667.474;143.25;     1.12455;1.00000;2
668.703;143.5;     1.10209;1.00000;2
669.931;143.75;     1.08243;1.00000;2
671.154;144;     1.05493;1.00000;2
672.376;144.25;     1.02893;1.00000;2
673.597;144.5;     0.99827;1.00000;2
674.818;144.75;     0.96715;1.00000;2
676.039;145;     0.93029;1.00000;2
677.258;145.25;     0.89269;1.00000;2
678.477;145.5;     0.85268;1.00000;2
679.697;145.75;     0.81066;1.00000;2
680.915;146;     0.76412;1.00000;2
682.131;146.25;     0.71180;1.00000;2
683.346;146.5;     0.65538;1.00000;2
684.56;146.75;     0.60002;1.00000;2
685.775;147;     0.53755;1.00000;2
686.986;147.25;     0.47662;1.00000;2
688.196;147.5;     0.41255;1.00000;2
689.407;147.75;     0.34605;1.00000;2
690.618;148;     0.28546;1.00000;2
691.831;148.25;     0.23043;1.00000;2
693.043;148.5;     0.17878;1.00000;2
694.256;148.75;     0.13568;1.00000;2
695.473;149;     0.10143;1.00000;2
696.694;149.25; 7.4009e-002;1.00000;2
697.916;149.5; 5.5007e-002;1.00000;2
699.142;149.75; 4.0170e-002;1.00000;2
700.371;150; 3.0215e-002;1.00000;2
701.601;150.25; 2.1831e-002;1.00000;2
702.831;150.5; 1.7980e-002;1.00000;2
704.06;150.75; 1.6107e-002;1.00000;2
705.291;151; 1.3505e-002;1.00000;2
706.526;151.25; 1.1170e-002;1.00000;2
707.761;151.5; 1.0762e-002;1.00000;2
708.999;151.75; 1.2441e-002;1.00000;2
710.236;152; 1.0056e-002;1.00000;2
711.471;152.25; 8.4939e-003;1.00000;2
712.709;152.5; 8.4723e-003;1.00000;2
713.945;152.75; 7.6372e-003;1.00000;2
715.181;153; 8.5182e-003;1.00000;2
716.416;153.25; 7.8725e-003;1.00000;2
717.649;153.5; 8.9737e-003;1.00000;2
718.885;153.75; 8.5370e-003;1.00000;2
720.121;154; 8.2383e-003;1.00000;2
721.357;154.25; 7.7722e-003;1.00000;2
722.592;154.5; 6.7958e-003;1.00000;2
723.827;154.75; 7.5203e-003;1.00000;2
725.061;155; 6.5420e-003;1.00000;2
726.296;155.25; 4.6408e-003;1.00000;2
727.532;155.5; 6.0420e-003;1.00000;2
728.769;155.75; 6.7942e-003;1.00000;2
730.006;156; 7.4833e-003;1.00000;2
731.242;156.25; 6.2249e-003;1.00000;2
732.478;156.5; 7.3863e-003;1.00000;2
733.712;156.75; 7.2795e-003;1.00000;2
734.95;157; 7.5469e-003;1.00000;2
736.187;157.25; 5.8574e-003;1.00000;2
737.423;157.5; 5.6056e-003;1.00000;2
738.661;157.75; 7.1089e-003;1.00000;2
739.898;158; 4.9858e-003;1.00000;2
741.135;158.25; 6.1401e-003;1.00000;2
742.371;158.5; 6.4262e-003;1.00000;2
743.607;158.75; 5.9880e-003;1.00000;2
744.842;159; 6.4813e-003;1.00000;2
746.075;159.25; 5.5539e-003;1.00000;2
747.308;159.5; 5.3228e-003;1.00000;2
748.542;159.75; 4.9570e-003;1.00000;2
749.774;160; 5.1909e-003;1.00000;2
751.007;160.25; 3.7353e-003;1.00000;2
752.241;160.5; 4.0568e-003;1.00000;2
753.474;160.75; 3.8725e-003;1.00000;2
754.709;161; 1.1120e-003;1.00000;2
755.944;161.25; 4.2328e-003;1.00000;2
757.179;161.5; 3.2413e-003;1.00000;2
758.412;161.75; 3.4488e-003;1.00000;2
759.647;162; 2.6988e-003;1.00000;2
760.88;162.25; 2.1268e-003;1.00000;2
762.116;162.5; 1.3139e-003;1.00000;2
763.351;162.75; 1.9571e-003;1.00000;2
764.587;163; 2.1621e-003;1.00000;2
765.823;163.25; 1.9417e-003;1.00000;2
767.059;163.5;-1.1003e-003;1.00000;2
768.295;163.75; 2.3189e-004;1.00000;2
769.532;164; 1.0848e-003;1.00000;2
770.77;164.25; 1.1716e-003;1.00000;2
772.008;164.5;-1.4280e-003;1.00000;2
773.247;164.75;-3.4771e-004;1.00000;2
774.484;165;-1.6543e-003;1.00000;2
775.722;165.25; 2.2461e-004;1.00000;2
776.962;165.5;-1.6126e-003;1.00000;2
778.2;165.75;-1.2222e-003;1.00000;2
779.436;166;-2.3571e-003;1.00000;2
780.671;166.25;-3.1356e-003;1.00000;2
781.905;166.5;-2.9229e-003;1.00000;2
783.14;166.75;-2.5171e-003;1.00000;2
784.375;167;-3.3344e-003;1.00000;2
785.609;167.25;-4.1355e-003;1.00000;2
786.842;167.5;-3.6617e-003;1.00000;2
788.077;167.75;-4.2181e-003;1.00000;2
789.312;168;-4.9795e-003;1.00000;2
790.548;168.25;-4.5460e-003;1.00000;2
791.782;168.5;-4.6151e-003;1.00000;2
793.017;168.75;-5.4210e-003;1.00000;2
794.255;169;-4.8088e-003;1.00000;2
795.493;169.25;-7.1153e-003;1.00000;2
796.729;169.5;-5.9008e-003;1.00000;2
797.966;169.75;-6.0988e-003;1.00000;2
799.2;170;-6.4735e-003;1.00000;2
800.435;170.25;-6.7054e-003;1.00000;2
801.672;170.5;-6.9642e-003;1.00000;2
802.905;170.75;-7.2330e-003;1.00000;2
804.141;171;-7.5035e-003;1.00000;2
805.379;171.25;-8.9805e-003;1.00000;2
806.613;171.5;-1.0258e-002;1.00000;2
807.846;171.75;-1.0379e-002;1.00000;2
809.08;172;-1.2124e-002;1.00000;2
810.312;172.25;-1.2399e-002;1.00000;2
811.544;172.5;-1.2617e-002;1.00000;2
812.779;172.75;-1.5382e-002;1.00000;2
814.012;173;-1.6873e-002;1.00000;2
815.245;173.25;-1.6598e-002;1.00000;2
816.475;173.5;-1.8256e-002;1.00000;2
817.709;173.75;-1.8205e-002;1.00000;2
818.944;174;-1.8621e-002;1.00000;2
820.177;174.25;-1.8765e-002;1.00000;2
821.41;174.5;-1.6390e-002;1.00000;2
822.643;174.75;-1.7119e-002;1.00000;2
823.877;175;-2.0324e-002;1.00000;2
825.111;175.25;-1.9084e-002;1.00000;2
826.346;175.5;-2.0093e-002;1.00000;2
827.58;175.75;-1.7870e-002;1.00000;2
828.815;176;-1.8723e-002;1.00000;2
830.051;176.25;-1.8401e-002;1.00000;2
831.283;176.5;-1.9410e-002;1.00000;2
832.518;176.75;-1.7618e-002;1.00000;2
833.752;177;-1.7461e-002;1.00000;2
834.987;177.25;-1.8442e-002;1.00000;2
836.222;177.5;-1.9147e-002;1.00000;2
837.455;177.75;-1.8111e-002;1.00000;2
838.691;178;-1.9479e-002;1.00000;2
839.927;178.25;-2.0471e-002;1.00000;2
841.162;178.5;-2.1248e-002;1.00000;2
842.396;178.75;-2.1462e-002;1.00000;2
843.63;179;-2.1952e-002;1.00000;2
844.866;179.25;-2.2147e-002;1.00000;2
846.101;179.5;-2.3599e-002;1.00000;2
847.336;179.75;-2.2673e-002;1.00000;2
848.569;180;-2.3428e-002;1.00000;2
849.801;180.25;-2.4642e-002;1.00000;2
851.034;180.5;-2.6528e-002;1.00000;2
852.265;180.75;-2.7357e-002;1.00000;2
853.5;181;-2.7284e-002;1.00000;2
854.735;181.25;-2.8656e-002;1.00000;2
855.969;181.5;-2.9322e-002;1.00000;2
857.203;181.75;-3.0883e-002;1.00000;2
858.438;182;-3.1619e-002;1.00000;2
859.672;182.25;-3.2686e-002;1.00000;2
860.904;182.5;-3.2964e-002;1.00000;2
862.139;182.75;-3.2372e-002;1.00000;2
863.372;183;-3.2291e-002;1.00000;2
864.607;183.25;-3.2204e-002;1.00000;2
865.842;183.5;-3.2335e-002;1.00000;2
867.076;183.75;-3.3124e-002;1.00000;2
868.312;184;-3.2689e-002;1.00000;2
869.548;184.25;-3.3510e-002;1.00000;2
870.783;184.5;-3.3959e-002;1.00000;2
872.018;184.75;-3.3946e-002;1.00000;2
873.252;185;-3.4691e-002;1.00000;2
874.487;185.25;-3.4837e-002;1.00000;2
875.721;185.5;-3.5983e-002;1.00000;2
876.955;185.75;-3.5798e-002;1.00000;2
878.188;186;-3.5875e-002;1.00000;2
879.421;186.25;-3.6644e-002;1.00000;2
880.653;186.5;-3.7005e-002;1.00000;2
881.887;186.75;-3.7002e-002;1.00000;2
883.121;187;-3.7657e-002;1.00000;2
884.353;187.25;-3.6635e-002;1.00000;2
885.587;187.5;-3.6359e-002;1.00000;2
886.822;187.75;-3.7750e-002;1.00000;2
888.055;188;-3.7454e-002;1.00000;2
889.289;188.25;-3.7277e-002;1.00000;2
890.521;188.5;-3.7817e-002;1.00000;2
891.756;188.75;-3.8319e-002;1.00000;2
892.986;189;-3.7561e-002;1.00000;2
894.216;189.25;-3.7001e-002;1.00000;2
895.45;189.5;-3.7657e-002;1.00000;2
896.682;189.75;-3.7283e-002;1.00000;2
897.912;190;-3.7845e-002;1.00000;2
899.145;190.25;-3.7592e-002;1.00000;2
900.378;190.5;-3.6347e-002;1.00000;2
901.61;190.75;-3.6936e-002;1.00000;2
902.845;191;-3.7481e-002;1.00000;2
904.08;191.25;-3.8901e-002;1.00000;2
905.315;191.5;-3.9903e-002;1.00000;2
906.55;191.75;-3.9743e-002;1.00000;2